Folder: sw/exp_dat/old/exp_2013_11_11 (part 6)

File: 12pct_20L.uxd
; (content of file C:\DIFFDAT1\GIFT\MDL\Seawoong Lee\20131104_MV8\equal_area_maxkhi080_n8_2th40_130_x25y25_20L.raw)
_FILEVERSION = 3
_SAMPLE =
_+SAMPLE =
_SITE = Korea
_USER = Admin
_GONIOMETER_CODE = 20
; Goniometer : D8 theta/2theta, stage : Unknown
_SAMPLE_CHANGER_CODE = 0
_ATTACHMENTS_CODE = 0
_GONIOMETER_RADIUS = 300
_FIXED_DIVSLIT = 1
_FIXED_SAMPLESLIT = 0
_SOLLER_SLITS = 2
_FIXED_DETSLIT = 0.1
_MONOCHROMATOR = 0
; Incident beam monochromator : None
_SOLLER_SLITS_2 = 2
_THIN_FILM = N
_BETA_FILTER = Y
_FIXED_ANTISLIT = 0.6
_ANALYZER_CODE = 0
; Received beam analyzer : None
_DATEMEASURED = "06-Nov-2013 19:06:35"
_WL_UNIT = A
_WL1 = 1.78897
_WL2 = 1.79285
_WL3 = 1.62079
_WLRATIO = 0.5
_ANODE = Co
_V4_INF_CREATOR = XRDWizard
_V4_INF_CREATOR_VERSION = V2.9.0.22
_V4_INF_WIZARD_VERSION = V2.9.0.22
_V4_INF_WIZARD_ADDINS = V2.9.0.22
_V4_INF_WIZARD_DOCTYPE = XRD
_V4_INF_OSUSER = Postech
_V4_INF_USER = Admin
_V4_INF_SITE = Korea

; Data for range 1
_DRIVE = COUPLED
_STEPTIME = 0.2
_STEPSIZE = 0.1
_STEPMODE = C
_START = 40
_THETA = 20
_2THETA = 40
_KHI = 0
_PHI = 0
_X = 25
_Y = 25
_Z = 0
_DETECTOR = 1
; Detector type : Scintillation counter
_HV = 687
_GAIN = 80
_LLD = 0.69
_ULD = 1.866
_DETECTORSLIT = unkn
_AUX1 = 0
_AUX2 = 0
_AUX3 = 0
_TIMESTARTED = 28
_TEMP_RATE = -1
_TEMP_DELAY = -1
_KV = 35
_MA = 40
_RANGE_WL = 1.78897
_3DPLANE = 0
_V4_ADDITIONALDETECTOR = 0
_V4_D8_DIBNUM = 1
_V4_DETECTORNAME = "Detector 1"
_V4_TTLDETECTOR = None
_V4_DETECTORTYPE = 1
_V4_DETECTORFLAGS = 524545
_V4_DETECTORHV = 687
_V4_DETECTORGAIN = 80
_V4_DETECTORLLD1 = 0.69
_V4_DETECTORWW1 = 1.176
_V4_DETECTORLLD2 = 0
_V4_DETECTORWW2 = 0
_V4_DETECTORPS = 0
_V4_DETECTORDT = 0
_V4_DETECTORPILEUPTIME = 0
_V4_COUNTERS_MASK = 1
_V4_DRIVES_MASK = 0
_V4_ENCODERS_MASK = 0
_2THETACOUNTS = 1
; 2THETA  Cnt1_D1
  40.0000        538
  40.4000        551
  40.8000        532
  41.2000        542
  41.6000        540
  42.0000        549
  42.4000        537
  42.8000        506
  43.2000        515
  43.6000        538
  44.0000        504
  44.4000        506
  44.8000        497
  45.2000        505
  45.6000        507
  46.0000        516
  46.4000        492
  46.8000        523
  47.2000        528
  47.6000        527
  48.0000        503
  48.4000        518
  48.8000        490
  49.2000        512
  49.6000        534
  50.0000        532
  50.4000        498
  50.8000        554
  51.2000        627
  51.6000        774
  52.0000       1391
  52.4000       1328
  52.8000        599
  53.2000        518
  53.6000        520
  54.0000        512
  54.4000        513
  54.8000        502
  55.2000        533
  55.6000        539
  56.0000        512
  56.4000        495
  56.8000        520
  57.2000        500
  57.6000        495
  58.0000        508
  58.4000        519
  58.8000        501
  59.2000        542
  59.6000        539
  60.0000        525
  60.4000        559
  60.8000        501
  61.2000        529
  61.6000        500
  62.0000        453
  62.4000        516
  62.8000        510
  63.2000        501
  63.6000        545
  64.0000        483
  64.4000        516
  64.8000        491
  65.2000        514
  65.6000        516
  66.0000        518
  66.4000        514
  66.8000        481
  67.2000        472
  67.6000        489
  68.0000        490
  68.4000        514
  68.8000        497
  69.2000        521
  69.6000        516
  70.0000        518
  70.4000        520
  70.8000        506
  71.2000        514
  71.6000        497
  72.0000        528
  72.4000        524
  72.8000        467
  73.2000        488
  73.6000        491
  74.0000        497
  74.4000        534
  74.8000        527
  75.2000        546
  75.6000        515
  76.0000        546
  76.4000        703
  76.8000       1009
  77.2000        887
  77.6000        581
  78.0000        528
  78.4000        520
  78.8000        487
  79.2000        541
  79.6000        505
  80.0000        529
  80.4000        515
  80.8000        535
  81.2000        507
  81.6000        508
  82.0000        502
  82.4000        537
  82.8000        512
  83.2000        484
  83.6000        506
  84.0000        505
  84.4000        491
  84.8000        502
  85.2000        536
  85.6000        500
  86.0000        517
  86.4000        516
  86.8000        508
  87.2000        532
  87.6000        487
  88.0000        481
  88.4000        494
  88.8000        583
  89.2000        601
  89.6000        623
  90.0000        579
  90.4000        553
  90.8000        552
  91.2000        515
  91.6000        530
  92.0000        525
  92.4000        514
  92.8000        493
  93.2000        483
  93.6000        473
  94.0000        503
  94.4000        536
  94.8000        517
  95.2000        536
  95.6000        529
  96.0000        500
  96.4000        499
  96.8000        500
  97.2000        517
  97.6000        537
  98.0000        579
  98.4000        572
  98.8000        912
  99.2000       1452
  99.6000       1321
 100.0000        768
 100.4000        571
 100.8000        495
 101.2000        507
 101.6000        527
 102.0000        494
 102.4000        540
 102.8000        527
 103.2000        506
 103.6000        523
 104.0000        505
 104.4000        474
 104.8000        515
 105.2000        514
 105.6000        490
 106.0000        469
 106.4000        506
 106.8000        549
 107.2000        531
 107.6000        508
 108.0000        516
 108.4000        482
 108.8000        553
 109.2000        512
 109.6000        550
 110.0000        513
 110.4000        547
 110.8000        560
 111.2000        522
 111.6000        536
 112.0000        564
 112.4000        512
 112.8000        482
 113.2000        524
 113.6000        511
 114.0000        507
 114.4000        505
 114.8000        528
 115.2000        549
 115.6000        538
 116.0000        514
 116.4000        491
 116.8000        504
 117.2000        513
 117.6000        513
 118.0000        512
 118.4000        470
 118.8000        527
 119.2000        526
 119.6000        536
 120.0000        522
 120.4000        532
 120.8000        519
 121.2000        501
 121.6000        480
 122.0000        548
 122.4000        510
 122.8000        561
 123.2000        593
 123.6000        616
 124.0000        566
 124.4000        578
 124.8000        505
 125.2000        519
 125.6000        526
 126.0000        509
 126.4000        488
 126.8000        528
 127.2000        485
 127.6000        517
 128.0000        556
 128.4000        525
 128.8000        506
 129.2000        515
 129.6000        483
 130.0000        487

; Data for range 2
_DRIVE = COUPLED
_STEPTIME = 0.2
_STEPSIZE = 0.1
_STEPMODE = C
_START = 40
_THETA = 20
_2THETA = 40
_KHI = 10.5
_PHI = 60
_X = 25
_Y = 25
_Z = 0
_DETECTOR = 1
; Detector type : Scintillation counter
_HV = 687
_GAIN = 80
_LLD = 0.69
_ULD = 1.866
_DETECTORSLIT = unkn
_AUX1 = 0
_AUX2 = 0
_AUX3 = 0
_TIMESTARTED = 225
_TEMP_RATE = -1
_TEMP_DELAY = -1
_KV = 35
_MA = 40
_RANGE_WL = 1.78897
_3DPLANE = 0
_V4_ADDITIONALDETECTOR = 0
_V4_D8_DIBNUM = 1
_V4_DETECTORNAME = "Detector 1"
_V4_TTLDETECTOR = None
_V4_DETECTORTYPE = 1
_V4_DETECTORFLAGS = 524545
_V4_DETECTORHV = 687
_V4_DETECTORGAIN = 80
_V4_DETECTORLLD1 = 0.69
_V4_DETECTORWW1 = 1.176
_V4_DETECTORLLD2 = 0
_V4_DETECTORWW2 = 0
_V4_DETECTORPS = 0
_V4_DETECTORDT = 0
_V4_DETECTORPILEUPTIME = 0
_V4_COUNTERS_MASK = 1
[...]
  60.8000        220
  61.2000        239
  61.6000        229
  62.0000        243
  62.4000        246
  62.8000        217
  63.2000        217
  63.6000        260
  64.0000        253
  64.4000        253
  64.8000        238
  65.2000        220
  65.6000        225
  66.0000        271
  66.4000        249
  66.8000        267
  67.2000        274
  67.6000        239
  68.0000        222
  68.4000        264
  68.8000        252
  69.2000        246
  69.6000        234
  70.0000        276
  70.4000        247
  70.8000        267
  71.2000        233
  71.6000        276
  72.0000        267
  72.4000        268
  72.8000        293
  73.2000        277
  73.6000        278
  74.0000        259
  74.4000        259
  74.8000        288
  75.2000        292
  75.6000        267
  76.0000        289
  76.4000        271
  76.8000        320
  77.2000        361
  77.6000        282
  78.0000        285
  78.4000        305
  78.8000        272
  79.2000        288
  79.6000        275
  80.0000        265
  80.4000        308
  80.8000        292
  81.2000        298
  81.6000        321
  82.0000        297
  82.4000        303
  82.8000        294
  83.2000        292
  83.6000        305
  84.0000        298
  84.4000        290
  84.8000        305
  85.2000        296
  85.6000        336
  86.0000        310
  86.4000        316
  86.8000        311
  87.2000        288
  87.6000        277
  88.0000        303
  88.4000        289
  88.8000        331
  89.2000        337
  89.6000        329
  90.0000        327
  90.4000        320
  90.8000        324
  91.2000        331
  91.6000        311
  92.0000        341
  92.4000        309
  92.8000        351
  93.2000        347
  93.6000        340
  94.0000        341
  94.4000        332
  94.8000        356
  95.2000        325
  95.6000        348
  96.0000        324
  96.4000        326
  96.8000        367
  97.2000        356
  97.6000        371
  98.0000        397
  98.4000        486
  98.8000        558
  99.2000        577
  99.6000        604
 100.0000        486
 100.4000        416
 100.8000        407
 101.2000        358
 101.6000        370
 102.0000        325
 102.4000        349
 102.8000        387
 103.2000        398
 103.6000        338
 104.0000        371
 104.4000        377
 104.8000        400
 105.2000        352
 105.6000        362
 106.0000        369
 106.4000        387
 106.8000        418
 107.2000        374
 107.6000        406
 108.0000        371
 108.4000        424
 108.8000        379
 109.2000        376
 109.6000        375
 110.0000        353
 110.4000        429
 110.8000        416
 111.2000        400
 111.6000        408
 112.0000        419
 112.4000        417
 112.8000        441
 113.2000        419
 113.6000        373
 114.0000        394
 114.4000        387
 114.8000        376
 115.2000        358
 115.6000        384
 116.0000        396
 116.4000        377
 116.8000        397
 117.2000        409
 117.6000        426
 118.0000        435
 118.4000        401
 118.8000        401
 119.2000        417
 119.6000        456
 120.0000        380
 120.4000        401
 120.8000        391
 121.2000        415
 121.6000        400
 122.0000        420
 122.4000        494
 122.8000        558
 123.2000        607
 123.6000        562
 124.0000        473
 124.4000        431
 124.8000        400
 125.2000        426
 125.6000        397
 126.0000        406
 126.4000        417
 126.8000        421
 127.2000        424
 127.6000        399
 128.0000        407
 128.4000        427
 128.8000        419
 129.2000        404
 129.6000        439
 130.0000        426

File: 13pct_20G.uxd
; (content of file C:\DIFFDAT1\GIFT\MDL\Seawoong Lee\20131104_MV8\equal_area_maxkhi080_n8_2th40_130_x25y25_20g.raw)
_FILEVERSION = 3
_SAMPLE =
_+SAMPLE =
_SITE = Korea
_USER = Admin
_GONIOMETER_CODE = 20
; Goniometer : D8 theta/2theta, stage : Unknown
_SAMPLE_CHANGER_CODE = 0
_ATTACHMENTS_CODE = 0
_GONIOMETER_RADIUS = 300
_FIXED_DIVSLIT = 1
_FIXED_SAMPLESLIT = 0
_SOLLER_SLITS = 2
_FIXED_DETSLIT = 0.1
_MONOCHROMATOR = 0
; Incident beam monochromator : None
_SOLLER_SLITS_2 = 2
_THIN_FILM = N
_BETA_FILTER = Y
_FIXED_ANTISLIT = 0.6
_ANALYZER_CODE = 0
; Received beam analyzer : None
_DATEMEASURED = "08-Nov-2013 18:43:09"
_WL_UNIT = A
_WL1 = 1.78897
_WL2 = 1.79285
_WL3 = 1.62079
_WLRATIO = 0.5
_ANODE = Co
_V4_INF_CREATOR = XRDWizard
_V4_INF_CREATOR_VERSION = V2.9.0.22
_V4_INF_WIZARD_VERSION = V2.9.0.22
_V4_INF_WIZARD_ADDINS = V2.9.0.22
_V4_INF_WIZARD_DOCTYPE = XRD
_V4_INF_OSUSER = Postech
_V4_INF_USER = Admin
_V4_INF_SITE = Korea

; Data for range 1
_DRIVE = COUPLED
_STEPTIME = 0.2
_STEPSIZE = 0.1
_STEPMODE = C
_START = 40
_THETA = 20
_2THETA = 40
_KHI = 0
_PHI = 0
_X = 25
_Y = 25
_Z = 0
_DETECTOR = 1
; Detector type : Scintillation counter
_HV = 687
_GAIN = 80
_LLD = 0.69
_ULD = 1.866
_DETECTORSLIT = unkn
_AUX1 = 0
_AUX2 = 0
_AUX3 = 0
_TIMESTARTED = 28
_TEMP_RATE = -1
_TEMP_DELAY = -1
_KV = 35
_MA = 40
_RANGE_WL = 1.78897
_3DPLANE = 0
_V4_ADDITIONALDETECTOR = 0
_V4_D8_DIBNUM = 1
_V4_DETECTORNAME = "Detector 1"
_V4_TTLDETECTOR = None
_V4_DETECTORTYPE = 1
_V4_DETECTORFLAGS = 524545
_V4_DETECTORHV = 687
_V4_DETECTORGAIN = 80
_V4_DETECTORLLD1 = 0.69
_V4_DETECTORWW1 = 1.176
_V4_DETECTORLLD2 = 0
_V4_DETECTORWW2 = 0
_V4_DETECTORPS = 0
_V4_DETECTORDT = 0
_V4_DETECTORPILEUPTIME = 0
_V4_COUNTERS_MASK = 1
_V4_DRIVES_MASK = 0
_V4_ENCODERS_MASK = 0
_2THETACOUNTS = 1
; 2THETA  Cnt1_D1
  40.0000        533
  40.4000        524
  40.8000        537
  41.2000        498
  41.6000        538
  42.0000        488
  42.4000        494
  42.8000        497
  43.2000        525
  43.6000        515
  44.0000        512
  44.4000        522
  44.8000        536
  45.2000        485
  45.6000        504
  46.0000        498
  46.4000        521
  46.8000        536
  47.2000        535
  47.6000        489
  48.0000        566
  48.4000        514
  48.8000        541
  49.2000        502
  49.6000        507
  50.0000        504
  50.4000        539
  50.8000        538
  51.2000        529
  51.6000        755
  52.0000       1109
  52.4000       1057
  52.8000        662
  53.2000        543
  53.6000        561
  54.0000        501
  54.4000        518
  54.8000        497
  55.2000        510
  55.6000        509
  56.0000        530
  56.4000        531
  56.8000        461
  57.2000        514
  57.6000        539
  58.0000        503
  58.4000        502
  58.8000        542
  59.2000        555
  59.6000        511
  60.0000        501
  60.4000        501
  60.8000        496
  61.2000        526
  61.6000        525
  62.0000        563
  62.4000        492
  62.8000        542
  63.2000        513
  63.6000        495
  64.0000        477
  64.4000        514
  64.8000        539
  65.2000        471
  65.6000        555
  66.0000        477
  66.4000        513
  66.8000        490
  67.2000        489
  67.6000        463
  68.0000        540
  68.4000        531
  68.8000        506
  69.2000        508
  69.6000        515
  70.0000        504
  70.4000        493
  70.8000        464
  71.2000        517
  71.6000        497
  72.0000        522
  72.4000        515
  72.8000        509
  73.2000        520
  73.6000        494
  74.0000        500
  74.4000        501
  74.8000        480
  75.2000        522
  75.6000        538
  76.0000        660
  76.4000       1066
  76.8000       1267
  77.2000       1000
  77.6000        626
  78.0000        562
  78.4000        469
  78.8000        530
  79.2000        506
  79.6000        486
  80.0000        483
  80.4000        538
  80.8000        489
  81.2000        526
  81.6000        517
  82.0000        538
  82.4000        534
  82.8000        503
  83.2000        495
  83.6000        556
  84.0000        507
  84.4000        481
  84.8000        515
  85.2000        512
  85.6000        520
  86.0000        524
  86.4000        524
  86.8000        528
  87.2000        512
  87.6000        527
  88.0000        504
  88.4000        506
  88.8000        502
  89.2000        493
  89.6000        552
  90.0000        465
  90.4000        527
  90.8000        521
  91.2000        527
  91.6000        547
  92.0000        474
  92.4000        525
  92.8000        457
  93.2000        480
  93.6000        510
  94.0000        504
  94.4000        553
  94.8000        501
  95.2000        475
  95.6000        482
  96.0000        521
  96.4000        510
  96.8000        493
  97.2000        513
  97.6000        532
  98.0000        570
  98.4000        684
  98.8000       1204
  99.2000       1711
  99.6000       1384
 100.0000        760
 100.4000        587
 100.8000        550
 101.2000        538
 101.6000        550
 102.0000        509
 102.4000        542
 102.8000        527
 103.2000        545
 103.6000        528
 104.0000        485
 104.4000        516
 104.8000        530
 105.2000        497
 105.6000        496
 106.0000        503
 106.4000        515
 106.8000        526
 107.2000        488
 107.6000        547
 108.0000        513
 108.4000        531
 108.8000        529
 109.2000        554
 109.6000        499
 110.0000        497
 110.4000        465
 110.8000        535
 111.2000        451
 111.6000        486
 112.0000        502
 112.4000        471
 112.8000        475
 113.2000        503
 113.6000        501
 114.0000        495
 114.4000        514
 114.8000        497
 115.2000        488
 115.6000        489
 116.0000        551
 116.4000        469
 116.8000        501
 117.2000        543
 117.6000        474
 118.0000        556
 118.4000        562
 118.8000        486
 119.2000        520
 119.6000        505
 120.0000        539
 120.4000        501
 120.8000        537
 121.2000        492
 121.6000        501
 122.0000        483
 122.4000        526
 122.8000        527
 123.2000        575
 123.6000        543
 124.0000        503
 124.4000        549
 124.8000        512
 125.2000        549
 125.6000        476
 126.0000        500
 126.4000        470
 126.8000        482
 127.2000        500
 127.6000        488
 128.0000        482
 128.4000        513
 128.8000        534
 129.2000        502
 129.6000        515
 130.0000        511

; Data for range 2
_DRIVE = COUPLED
_STEPTIME = 0.2
_STEPSIZE = 0.1
_STEPMODE = C
_START = 40
_THETA = 20
_2THETA = 40
_KHI = 10.5
_PHI = 60
_X = 25
_Y = 25
_Z = 0
_DETECTOR = 1
; Detector type : Scintillation counter
_HV = 687
_GAIN = 80
_LLD = 0.69
_ULD = 1.866
_DETECTORSLIT = unkn
_AUX1 = 0
_AUX2 = 0
_AUX3 = 0
_TIMESTARTED = 225
_TEMP_RATE = -1
_TEMP_DELAY = -1
_KV = 35
_MA = 40
_RANGE_WL = 1.78897
_3DPLANE = 0
_V4_ADDITIONALDETECTOR = 0
_V4_D8_DIBNUM = 1
_V4_DETECTORNAME = "Detector 1"
_V4_TTLDETECTOR = None
_V4_DETECTORTYPE = 1
_V4_DETECTORFLAGS = 524545
_V4_DETECTORHV = 687
_V4_DETECTORGAIN = 80
_V4_DETECTORLLD1 = 0.69
_V4_DETECTORWW1 = 1.176
_V4_DETECTORLLD2 = 0
_V4_DETECTORWW2 = 0
_V4_DETECTORPS = 0
_V4_DETECTORDT = 0
_V4_DETECTORPILEUPTIME = 0
_V4_COUNTERS_MASK = 1
[...]
  60.8000        234
  61.2000        215
  61.6000        275
  62.0000        237
  62.4000        252
  62.8000        261
  63.2000        258
  63.6000        278
  64.0000        245
  64.4000        259
  64.8000        268
  65.2000        262
  65.6000        277
  66.0000        253
  66.4000        263
  66.8000        292
  67.2000        266
  67.6000        265
  68.0000        275
  68.4000        267
  68.8000        268
  69.2000        323
  69.6000        296
  70.0000        303
  70.4000        296
  70.8000        287
  71.2000        294
  71.6000        283
  72.0000        281
  72.4000        298
  72.8000        261
  73.2000        318
  73.6000        274
  74.0000        325
  74.4000        301
  74.8000        309
  75.2000        333
  75.6000        338
  76.0000        359
  76.4000        382
  76.8000        359
  77.2000        345
  77.6000        370
  78.0000        323
  78.4000        316
  78.8000        332
  79.2000        345
  79.6000        310
  80.0000        304
  80.4000        300
  80.8000        318
  81.2000        339
  81.6000        303
  82.0000        282
  82.4000        355
  82.8000        338
  83.2000        335
  83.6000        322
  84.0000        324
  84.4000        345
  84.8000        324
  85.2000        338
  85.6000        358
  86.0000        294
  86.4000        362
  86.8000        324
  87.2000        341
  87.6000        350
  88.0000        331
  88.4000        340
  88.8000        369
  89.2000        325
  89.6000        362
  90.0000        362
  90.4000        350
  90.8000        354
  91.2000        317
  91.6000        375
  92.0000        370
  92.4000        329
  92.8000        377
  93.2000        330
  93.6000        377
  94.0000        345
  94.4000        357
  94.8000        342
  95.2000        365
  95.6000        366
  96.0000        384
  96.4000        391
  96.8000        411
  97.2000        417
  97.6000        393
  98.0000        438
  98.4000        563
  98.8000        643
  99.2000        650
  99.6000        548
 100.0000        528
 100.4000        481
 100.8000        435
 101.2000        405
 101.6000        401
 102.0000        405
 102.4000        423
 102.8000        397
 103.2000        398
 103.6000        411
 104.0000        377
 104.4000        407
 104.8000        419
 105.2000        394
 105.6000        417
 106.0000        420
 106.4000        406
 106.8000        418
 107.2000        407
 107.6000        417
 108.0000        429
 108.4000        425
 108.8000        438
 109.2000        478
 109.6000        455
 110.0000        423
 110.4000        441
 110.8000        443
 111.2000        415
 111.6000        420
 112.0000        414
 112.4000        438
 112.8000        426
 113.2000        438
 113.6000        449
 114.0000        388
 114.4000        454
 114.8000        437
 115.2000        429
 115.6000        428
 116.0000        402
 116.4000        456
 116.8000        428
 117.2000        413
 117.6000        467
 118.0000        454
 118.4000        424
 118.8000        436
 119.2000        441
 119.6000        453
 120.0000        457
 120.4000        449
 120.8000        460
 121.2000        446
 121.6000        437
 122.0000        460
 122.4000        503
 122.8000        577
 123.2000        580
 123.6000        587
 124.0000        614
 124.4000        526
 124.8000        457
 125.2000        459
 125.6000        478
 126.0000        475
 126.4000        460
 126.8000        440
 127.2000        482
 127.6000        459
 128.0000        456
 128.4000        429
 128.8000        463
 129.2000        447
 129.6000        454
 130.0000        427