Folder: sw/exp_dat/old/exp_2013_11_11 (part 7)

File: 14pct_10L.uxd
; (content of file C:\DIFFDAT1\GIFT\MDL\Seawoong Lee\20131104_MV8\equal_area_maxkhi080_n8_2th40_130_x00y-25_10L.raw)
_FILEVERSION = 3
_SAMPLE =
_+SAMPLE =
_SITE = Korea
_USER = Admin
_GONIOMETER_CODE = 20
; Goniometer : D8 theta/2theta, stage : Unknown
_SAMPLE_CHANGER_CODE = 0
_ATTACHMENTS_CODE = 0
_GONIOMETER_RADIUS = 300
_FIXED_DIVSLIT = 1
_FIXED_SAMPLESLIT = 0
_SOLLER_SLITS = 2
_FIXED_DETSLIT = 0.1
_MONOCHROMATOR = 0
; Incident beam monochromator : None
_SOLLER_SLITS_2 = 2
_THIN_FILM = N
_BETA_FILTER = Y
_FIXED_ANTISLIT = 0.6
_ANALYZER_CODE = 0
; Received beam analyzer : None
_DATEMEASURED = "06-Nov-2013 22:01:14"
_WL_UNIT = A
_WL1 = 1.78897
_WL2 = 1.79285
_WL3 = 1.62079
_WLRATIO = 0.5
_ANODE = Co
_V4_INF_CREATOR = XRDWizard
_V4_INF_CREATOR_VERSION = V2.9.0.22
_V4_INF_WIZARD_VERSION = V2.9.0.22
_V4_INF_WIZARD_ADDINS = V2.9.0.22
_V4_INF_WIZARD_DOCTYPE = XRD
_V4_INF_OSUSER = Postech
_V4_INF_USER = Admin
_V4_INF_SITE = Korea

; Data for range 1
_DRIVE = COUPLED
_STEPTIME = 0.2
_STEPSIZE = 0.1
_STEPMODE = C
_START = 40
_THETA = 20
_2THETA = 40
_KHI = 0
_PHI = 0
_X = 0
_Y = -25
_Z = 0
_DETECTOR = 1
; Detector type : Scintillation counter
_HV = 687
_GAIN = 80
_LLD = 0.69
_ULD = 1.866
_DETECTORSLIT = unkn
_AUX1 = 0
_AUX2 = 0
_AUX3 = 0
_TIMESTARTED = 28
_TEMP_RATE = -1
_TEMP_DELAY = -1
_KV = 35
_MA = 40
_RANGE_WL = 1.78897
_3DPLANE = 0
_V4_ADDITIONALDETECTOR = 0
_V4_D8_DIBNUM = 1
_V4_DETECTORNAME = "Detector 1"
_V4_TTLDETECTOR = None
_V4_DETECTORTYPE = 1
_V4_DETECTORFLAGS = 524545
_V4_DETECTORHV = 687
_V4_DETECTORGAIN = 80
_V4_DETECTORLLD1 = 0.69
_V4_DETECTORWW1 = 1.176
_V4_DETECTORLLD2 = 0
_V4_DETECTORWW2 = 0
_V4_DETECTORPS = 0
_V4_DETECTORDT = 0
_V4_DETECTORPILEUPTIME = 0
_V4_COUNTERS_MASK = 1
_V4_DRIVES_MASK = 0
_V4_ENCODERS_MASK = 0
_2THETACOUNTS = 1
; 2THETA  Cnt1_D1
  40.0000        453
  40.4000        455
  40.8000        472
  41.2000        512
  41.6000        505
  42.0000        482
  42.4000        472
  42.8000        500
  43.2000        489
  43.6000        533
  44.0000        489
  44.4000        513
  44.8000        483
  45.2000        505
  45.6000        493
  46.0000        496
  46.4000        471
  46.8000        549
  47.2000        499
  47.6000        489
  48.0000        504
  48.4000        459
  48.8000        508
  49.2000        514
  49.6000        502
  50.0000        486
  50.4000        496
  50.8000        564
  51.2000        628
  51.6000        823
  52.0000       1448
  52.4000       1355
  52.8000        679
  53.2000        577
  53.6000        540
  54.0000        524
  54.4000        570
  54.8000        533
  55.2000        500
  55.6000        473
  56.0000        522
  56.4000        538
  56.8000        503
  57.2000        520
  57.6000        522
  58.0000        547
  58.4000        495
  58.8000        507
  59.2000        536
  59.6000        538
  60.0000        560
  60.4000        538
  60.8000        503
  61.2000        526
  61.6000        513
  62.0000        532
  62.4000        503
  62.8000        550
  63.2000        500
  63.6000        502
  64.0000        523
  64.4000        493
  64.8000        495
  65.2000        502
  65.6000        493
  66.0000        525
  66.4000        548
  66.8000        475
  67.2000        529
  67.6000        508
  68.0000        549
  68.4000        530
  68.8000        470
  69.2000        529
  69.6000        495
  70.0000        507
  70.4000        539
  70.8000        482
  71.2000        520
  71.6000        491
  72.0000        494
  72.4000        472
  72.8000        510
  73.2000        537
  73.6000        496
  74.0000        526
  74.4000        522
  74.8000        532
  75.2000        510
  75.6000        541
  76.0000        535
  76.4000        708
  76.8000       1050
  77.2000        972
  77.6000        609
  78.0000        520
  78.4000        554
  78.8000        533
  79.2000        520
  79.6000        540
  80.0000        487
  80.4000        483
  80.8000        537
  81.2000        554
  81.6000        491
  82.0000        557
  82.4000        516
  82.8000        536
  83.2000        535
  83.6000        483
  84.0000        551
  84.4000        563
  84.8000        516
  85.2000        527
  85.6000        488
  86.0000        517
  86.4000        572
  86.8000        506
  87.2000        547
  87.6000        496
  88.0000        550
  88.4000        526
  88.8000        545
  89.2000        559
  89.6000        576
  90.0000        588
  90.4000        518
  90.8000        507
  91.2000        482
  91.6000        494
  92.0000        499
  92.4000        521
  92.8000        452
  93.2000        493
  93.6000        514
  94.0000        507
  94.4000        493
  94.8000        539
  95.2000        533
  95.6000        477
  96.0000        549
  96.4000        461
  96.8000        563
  97.2000        541
  97.6000        525
  98.0000        515
  98.4000        590
  98.8000        881
  99.2000       1296
  99.6000       1240
 100.0000        751
 100.4000        549
 100.8000        519
 101.2000        504
 101.6000        498
 102.0000        538
 102.4000        501
 102.8000        510
 103.2000        546
 103.6000        524
 104.0000        537
 104.4000        501
 104.8000        506
 105.2000        496
 105.6000        502
 106.0000        515
 106.4000        519
 106.8000        492
 107.2000        546
 107.6000        509
 108.0000        530
 108.4000        492
 108.8000        510
 109.2000        560
 109.6000        522
 110.0000        516
 110.4000        561
 110.8000        566
 111.2000        522
 111.6000        591
 112.0000        539
 112.4000        546
 112.8000        521
 113.2000        508
 113.6000        517
 114.0000        547
 114.4000        504
 114.8000        567
 115.2000        512
 115.6000        502
 116.0000        483
 116.4000        496
 116.8000        528
 117.2000        545
 117.6000        495
 118.0000        527
 118.4000        489
 118.8000        521
 119.2000        523
 119.6000        574
 120.0000        563
 120.4000        480
 120.8000        480
 121.2000        506
 121.6000        503
 122.0000        480
 122.4000        502
 122.8000        588
 123.2000        605
 123.6000        559
 124.0000        561
 124.4000        570
 124.8000        517
 125.2000        570
 125.6000        519
 126.0000        484
 126.4000        530
 126.8000        507
 127.2000        511
 127.6000        492
 128.0000        525
 128.4000        585
 128.8000        502
 129.2000        486
 129.6000        456
 130.0000        468

; Data for range 2
_DRIVE = COUPLED
_STEPTIME = 0.2
_STEPSIZE = 0.1
_STEPMODE = C
_START = 40
_THETA = 20
_2THETA = 40
_KHI = 10.5
_PHI = 60
_X = 0
_Y = -25
_Z = 0
_DETECTOR = 1
; Detector type : Scintillation counter
_HV = 687
_GAIN = 80
_LLD = 0.69
_ULD = 1.866
_DETECTORSLIT = unkn
_AUX1 = 0
_AUX2 = 0
_AUX3 = 0
_TIMESTARTED = 225
_TEMP_RATE = -1
_TEMP_DELAY = -1
_KV = 35
_MA = 40
_RANGE_WL = 1.78897
_3DPLANE = 0
_V4_ADDITIONALDETECTOR = 0
_V4_D8_DIBNUM = 1
_V4_DETECTORNAME = "Detector 1"
_V4_TTLDETECTOR = None
_V4_DETECTORTYPE = 1
_V4_DETECTORFLAGS = 524545
_V4_DETECTORHV = 687
_V4_DETECTORGAIN = 80
_V4_DETECTORLLD1 = 0.69
_V4_DETECTORWW1 = 1.176
_V4_DETECTORLLD2 = 0
_V4_DETECTORWW2 = 0
_V4_DETECTORPS = 0
_V4_DETECTORDT = 0
_V4_DETECTORPILEUPTIME = 0
_V4_COUNTERS_MASK = 1
[...]
  60.8000        220
  61.2000        203
  61.6000        200
  62.0000        178
  62.4000        180
  62.8000        214
  63.2000        180
  63.6000        179
  64.0000        196
  64.4000        217
  64.8000        196
  65.2000        232
  65.6000        210
  66.0000        196
  66.4000        193
  66.8000        197
  67.2000        208
  67.6000        196
  68.0000        187
  68.4000        175
  68.8000        195
  69.2000        219
  69.6000        228
  70.0000        214
  70.4000        190
  70.8000        219
  71.2000        212
  71.6000        216
  72.0000        224
  72.4000        203
  72.8000        229
  73.2000        214
  73.6000        202
  74.0000        226
  74.4000        241
  74.8000        213
  75.2000        230
  75.6000        213
  76.0000        221
  76.4000        248
  76.8000        248
  77.2000        269
  77.6000        279
  78.0000        262
  78.4000        225
  78.8000        209
  79.2000        228
  79.6000        212
  80.0000        229
  80.4000        253
  80.8000        215
  81.2000        222
  81.6000        237
  82.0000        232
  82.4000        226
  82.8000        252
  83.2000        217
  83.6000        229
  84.0000        236
  84.4000        252
  84.8000        229
  85.2000        244
  85.6000        233
  86.0000        246
  86.4000        230
  86.8000        231
  87.2000        230
  87.6000        222
  88.0000        261
  88.4000        242
  88.8000        246
  89.2000        228
  89.6000        252
  90.0000        260
  90.4000        264
  90.8000        265
  91.2000        290
  91.6000        278
  92.0000        236
  92.4000        259
  92.8000        256
  93.2000        244
  93.6000        271
  94.0000        285
  94.4000        256
  94.8000        247
  95.2000        290
  95.6000        263
  96.0000        272
  96.4000        291
  96.8000        301
  97.2000        285
  97.6000        268
  98.0000        287
  98.4000        354
  98.8000        358
  99.2000        443
  99.6000        443
 100.0000        365
 100.4000        350
 100.8000        322
 101.2000        289
 101.6000        282
 102.0000        265
 102.4000        286
 102.8000        265
 103.2000        305
 103.6000        269
 104.0000        290
 104.4000        290
 104.8000        295
 105.2000        300
 105.6000        296
 106.0000        293
 106.4000        313
 106.8000        312
 107.2000        350
 107.6000        327
 108.0000        320
 108.4000        315
 108.8000        287
 109.2000        336
 109.6000        313
 110.0000        339
 110.4000        361
 110.8000        329
 111.2000        340
 111.6000        334
 112.0000        349
 112.4000        318
 112.8000        322
 113.2000        307
 113.6000        308
 114.0000        300
 114.4000        299
 114.8000        336
 115.2000        348
 115.6000        339
 116.0000        340
 116.4000        298
 116.8000        347
 117.2000        353
 117.6000        330
 118.0000        363
 118.4000        363
 118.8000        348
 119.2000        345
 119.6000        348
 120.0000        313
 120.4000        354
 120.8000        356
 121.2000        339
 121.6000        356
 122.0000        384
 122.4000        427
 122.8000        450
 123.2000        476
 123.6000        493
 124.0000        438
 124.4000        381
 124.8000        397
 125.2000        367
 125.6000        380
 126.0000        364
 126.4000        381
 126.8000        360
 127.2000        344
 127.6000        384
 128.0000        382
 128.4000        349
 128.8000        357
 129.2000        358
 129.6000        375
 130.0000        328

File: 15pct_10G.uxd
; (content of file C:\DIFFDAT1\GIFT\MDL\Seawoong Lee\20131104_MV8\equal_area_maxkhi080_n8_2th40_130_x25y00_10g.raw)
_FILEVERSION = 3
_SAMPLE =
_+SAMPLE =
_SITE = Korea
_USER = Admin
_GONIOMETER_CODE = 20
; Goniometer : D8 theta/2theta, stage : Unknown
_SAMPLE_CHANGER_CODE = 0
_ATTACHMENTS_CODE = 0
_GONIOMETER_RADIUS = 300
_FIXED_DIVSLIT = 1
_FIXED_SAMPLESLIT = 0
_SOLLER_SLITS = 2
_FIXED_DETSLIT = 0.1
_MONOCHROMATOR = 0
; Incident beam monochromator : None
_SOLLER_SLITS_2 = 2
_THIN_FILM = N
_BETA_FILTER = Y
_FIXED_ANTISLIT = 0.6
_ANALYZER_CODE = 0
; Received beam analyzer : None
_DATEMEASURED = "08-Nov-2013 15:48:33"
_WL_UNIT = A
_WL1 = 1.78897
_WL2 = 1.79285
_WL3 = 1.62079
_WLRATIO = 0.5
_ANODE = Co
_V4_INF_CREATOR = XRDWizard
_V4_INF_CREATOR_VERSION = V2.9.0.22
_V4_INF_WIZARD_VERSION = V2.9.0.22
_V4_INF_WIZARD_ADDINS = V2.9.0.22
_V4_INF_WIZARD_DOCTYPE = XRD
_V4_INF_OSUSER = Postech
_V4_INF_USER = Admin
_V4_INF_SITE = Korea

; Data for range 1
_DRIVE = COUPLED
_STEPTIME = 0.2
_STEPSIZE = 0.1
_STEPMODE = C
_START = 40
_THETA = 20
_2THETA = 40
_KHI = 0
_PHI = 0
_X = 25
_Y = 0
_Z = 0
_DETECTOR = 1
; Detector type : Scintillation counter
_HV = 687
_GAIN = 80
_LLD = 0.69
_ULD = 1.866
_DETECTORSLIT = unkn
_AUX1 = 0
_AUX2 = 0
_AUX3 = 0
_TIMESTARTED = 28
_TEMP_RATE = -1
_TEMP_DELAY = -1
_KV = 35
_MA = 40
_RANGE_WL = 1.78897
_3DPLANE = 0
_V4_ADDITIONALDETECTOR = 0
_V4_D8_DIBNUM = 1
_V4_DETECTORNAME = "Detector 1"
_V4_TTLDETECTOR = None
_V4_DETECTORTYPE = 1
_V4_DETECTORFLAGS = 524545
_V4_DETECTORHV = 687
_V4_DETECTORGAIN = 80
_V4_DETECTORLLD1 = 0.69
_V4_DETECTORWW1 = 1.176
_V4_DETECTORLLD2 = 0
_V4_DETECTORWW2 = 0
_V4_DETECTORPS = 0
_V4_DETECTORDT = 0
_V4_DETECTORPILEUPTIME = 0
_V4_COUNTERS_MASK = 1
_V4_DRIVES_MASK = 0
_V4_ENCODERS_MASK = 0
_2THETACOUNTS = 1
; 2THETA  Cnt1_D1
  40.0000        469
  40.4000        460
  40.8000        487
  41.2000        459
  41.6000        452
  42.0000        477
  42.4000        480
  42.8000        443
  43.2000        449
  43.6000        462
  44.0000        529
  44.4000        439
  44.8000        501
  45.2000        489
  45.6000        484
  46.0000        520
  46.4000        470
  46.8000        496
  47.2000        522
  47.6000        460
  48.0000        487
  48.4000        471
  48.8000        491
  49.2000        518
  49.6000        507
  50.0000        483
  50.4000        532
  50.8000        542
  51.2000        555
  51.6000        711
  52.0000       1156
  52.4000       1162
  52.8000        646
  53.2000        536
  53.6000        554
  54.0000        530
  54.4000        511
  54.8000        574
  55.2000        546
  55.6000        479
  56.0000        492
  56.4000        556
  56.8000        506
  57.2000        481
  57.6000        515
  58.0000        557
  58.4000        533
  58.8000        481
  59.2000        488
  59.6000        537
  60.0000        557
  60.4000        518
  60.8000        536
  61.2000        513
  61.6000        522
  62.0000        486
  62.4000        542
  62.8000        515
  63.2000        534
  63.6000        482
  64.0000        540
  64.4000        510
  64.8000        536
  65.2000        500
  65.6000        476
  66.0000        537
  66.4000        511
  66.8000        492
  67.2000        521
  67.6000        527
  68.0000        508
  68.4000        516
  68.8000        493
  69.2000        490
  69.6000        479
  70.0000        492
  70.4000        483
  70.8000        529
  71.2000        535
  71.6000        525
  72.0000        510
  72.4000        509
  72.8000        516
  73.2000        522
  73.6000        493
  74.0000        504
  74.4000        508
  74.8000        510
  75.2000        486
  75.6000        545
  76.0000        681
  76.4000       1094
  76.8000       1276
  77.2000       1039
  77.6000        632
  78.0000        527
  78.4000        523
  78.8000        543
  79.2000        514
  79.6000        546
  80.0000        520
  80.4000        496
  80.8000        496
  81.2000        512
  81.6000        486
  82.0000        466
  82.4000        524
  82.8000        506
  83.2000        497
  83.6000        535
  84.0000        537
  84.4000        554
  84.8000        502
  85.2000        537
  85.6000        518
  86.0000        468
  86.4000        466
  86.8000        503
  87.2000        486
  87.6000        515
  88.0000        522
  88.4000        505
  88.8000        512
  89.2000        520
  89.6000        507
  90.0000        525
  90.4000        555
  90.8000        515
  91.2000        503
  91.6000        488
  92.0000        482
  92.4000        519
  92.8000        478
  93.2000        540
  93.6000        519
  94.0000        516
  94.4000        465
  94.8000        527
  95.2000        503
  95.6000        509
  96.0000        557
  96.4000        509
  96.8000        544
  97.2000        485
  97.6000        522
  98.0000        570
  98.4000        690
  98.8000       1175
  99.2000       1594
  99.6000       1328
 100.0000        807
 100.4000        619
 100.8000        573
 101.2000        561
 101.6000        532
 102.0000        563
 102.4000        532
 102.8000        504
 103.2000        504
 103.6000        510
 104.0000        531
 104.4000        520
 104.8000        529
 105.2000        521
 105.6000        507
 106.0000        485
 106.4000        522
 106.8000        503
 107.2000        524
 107.6000        506
 108.0000        507
 108.4000        502
 108.8000        477
 109.2000        521
 109.6000        483
 110.0000        522
 110.4000        471
 110.8000        497
 111.2000        544
 111.6000        519
 112.0000        550
 112.4000        527
 112.8000        519
 113.2000        500
 113.6000        492
 114.0000        523
 114.4000        514
 114.8000        524
 115.2000        531
 115.6000        524
 116.0000        504
 116.4000        518
 116.8000        510
 117.2000        506
 117.6000        490
 118.0000        503
 118.4000        537
 118.8000        477
 119.2000        484
 119.6000        515
 120.0000        513
 120.4000        516
 120.8000        517
 121.2000        514
 121.6000        552
 122.0000        518
 122.4000        548
 122.8000        515
 123.2000        530
 123.6000        536
 124.0000        538
 124.4000        523
 124.8000        527
 125.2000        517
 125.6000        546
 126.0000        526
 126.4000        526
 126.8000        548
 127.2000        488
 127.6000        558
 128.0000        524
 128.4000        453
 128.8000        545
 129.2000        464
 129.6000        494
 130.0000        505

; Data for range 2
_DRIVE = COUPLED
_STEPTIME = 0.2
_STEPSIZE = 0.1
_STEPMODE = C
_START = 40
_THETA = 20
_2THETA = 40
_KHI = 10.5
_PHI = 60
_X = 25
_Y = 0
_Z = 0
_DETECTOR = 1
; Detector type : Scintillation counter
_HV = 687
_GAIN = 80
_LLD = 0.69
_ULD = 1.866
_DETECTORSLIT = unkn
_AUX1 = 0
_AUX2 = 0
_AUX3 = 0
_TIMESTARTED = 225
_TEMP_RATE = -1
_TEMP_DELAY = -1
_KV = 35
_MA = 40
_RANGE_WL = 1.78897
_3DPLANE = 0
_V4_ADDITIONALDETECTOR = 0
_V4_D8_DIBNUM = 1
_V4_DETECTORNAME = "Detector 1"
_V4_TTLDETECTOR = None
_V4_DETECTORTYPE = 1
_V4_DETECTORFLAGS = 524545
_V4_DETECTORHV = 687
_V4_DETECTORGAIN = 80
_V4_DETECTORLLD1 = 0.69
_V4_DETECTORWW1 = 1.176
_V4_DETECTORLLD2 = 0
_V4_DETECTORWW2 = 0
_V4_DETECTORPS = 0
_V4_DETECTORDT = 0
_V4_DETECTORPILEUPTIME = 0
_V4_COUNTERS_MASK = 1
[...]
  60.8000        202
  61.2000        210
  61.6000        221
  62.0000        193
  62.4000        232
  62.8000        188
  63.2000        197
  63.6000        202
  64.0000        210
  64.4000        214
  64.8000        217
  65.2000        249
  65.6000        211
  66.0000        224
  66.4000        217
  66.8000        207
  67.2000        209
  67.6000        226
  68.0000        229
  68.4000        208
  68.8000        233
  69.2000        220
  69.6000        246
  70.0000        225
  70.4000        254
  70.8000        222
  71.2000        219
  71.6000        237
  72.0000        260
  72.4000        243
  72.8000        230
  73.2000        258
  73.6000        237
  74.0000        263
  74.4000        221
  74.8000        231
  75.2000        265
  75.6000        236
  76.0000        255
  76.4000        283
  76.8000        277
  77.2000        269
  77.6000        266
  78.0000        225
  78.4000        257
  78.8000        247
  79.2000        248
  79.6000        255
  80.0000        235
  80.4000        243
  80.8000        238
  81.2000        225
  81.6000        266
  82.0000        277
  82.4000        267
  82.8000        230
  83.2000        256
  83.6000        243
  84.0000        245
  84.4000        269
  84.8000        264
  85.2000        267
  85.6000        268
  86.0000        252
  86.4000        257
  86.8000        263
  87.2000        275
  87.6000        259
  88.0000        294
  88.4000        266
  88.8000        244
  89.2000        267
  89.6000        261
  90.0000        289
  90.4000        285
  90.8000        278
  91.2000        290
  91.6000        299
  92.0000        287
  92.4000        263
  92.8000        282
  93.2000        276
  93.6000        264
  94.0000        285
  94.4000        271
  94.8000        301
  95.2000        269
  95.6000        276
  96.0000        294
  96.4000        289
  96.8000        323
  97.2000        308
  97.6000        308
  98.0000        328
  98.4000        421
  98.8000        447
  99.2000        573
  99.6000        524
 100.0000        470
 100.4000        378
 100.8000        349
 101.2000        322
 101.6000        298
 102.0000        296
 102.4000        300
 102.8000        341
 103.2000        322
 103.6000        306
 104.0000        295
 104.4000        312
 104.8000        351
 105.2000        330
 105.6000        321
 106.0000        329
 106.4000        314
 106.8000        332
 107.2000        335
 107.6000        347
 108.0000        369
 108.4000        354
 108.8000        342
 109.2000        358
 109.6000        352
 110.0000        345
 110.4000        356
 110.8000        373
 111.2000        347
 111.6000        338
 112.0000        377
 112.4000        374
 112.8000        369
 113.2000        367
 113.6000        379
 114.0000        375
 114.4000        367
 114.8000        370
 115.2000        361
 115.6000        346
 116.0000        331
 116.4000        380
 116.8000        365
 117.2000        382
 117.6000        348
 118.0000        359
 118.4000        381
 118.8000        350
 119.2000        361
 119.6000        391
 120.0000        394
 120.4000        404
 120.8000        365
 121.2000        348
 121.6000        386
 122.0000        433
 122.4000        435
 122.8000        481
 123.2000        512
 123.6000        494
 124.0000        481
 124.4000        443
 124.8000        427
 125.2000        365
 125.6000        396
 126.0000        421
 126.4000        395
 126.8000        391
 127.2000        392
 127.6000        370
 128.0000        387
 128.4000        393
 128.8000        372
 129.2000        417
 129.6000        369
 130.0000        371