Folder: sw/exp_dat/old/exp_2013_11_11 (part 9)

File: 18pct_-10L.uxd
; (content of file C:\DIFFDAT1\GIFT\MDL\Seawoong Lee\20131104_MV8\equal_area_maxkhi080_n8_2th40_130_x00y25_-10L.raw)
_FILEVERSION = 3
_SAMPLE =
_+SAMPLE =
_SITE = Korea
_USER = Admin
_GONIOMETER_CODE = 20
; Goniometer : D8 theta/2theta, stage : Unknown
_SAMPLE_CHANGER_CODE = 0
_ATTACHMENTS_CODE = 0
_GONIOMETER_RADIUS = 300
_FIXED_DIVSLIT = 1
_FIXED_SAMPLESLIT = 0
_SOLLER_SLITS = 2
_FIXED_DETSLIT = 0.1
_MONOCHROMATOR = 0
; Incident beam monochromator : None
_SOLLER_SLITS_2 = 2
_THIN_FILM = N
_BETA_FILTER = Y
_FIXED_ANTISLIT = 0.6
_ANALYZER_CODE = 0
; Received beam analyzer : None
_DATEMEASURED = "07-Nov-2013 03:50:30"
_WL_UNIT = A
_WL1 = 1.78897
_WL2 = 1.79285
_WL3 = 1.62079
_WLRATIO = 0.5
_ANODE = Co
_V4_INF_CREATOR = XRDWizard
_V4_INF_CREATOR_VERSION = V2.9.0.22
_V4_INF_WIZARD_VERSION = V2.9.0.22
_V4_INF_WIZARD_ADDINS = V2.9.0.22
_V4_INF_WIZARD_DOCTYPE = XRD
_V4_INF_OSUSER = Postech
_V4_INF_USER = Admin
_V4_INF_SITE = Korea

; Data for range 1
_DRIVE = COUPLED
_STEPTIME = 0.2
_STEPSIZE = 0.1
_STEPMODE = C
_START = 40
_THETA = 20
_2THETA = 40
_KHI = 0
_PHI = 0
_X = 0
_Y = 25
_Z = 0
_DETECTOR = 1
; Detector type : Scintillation counter
_HV = 687
_GAIN = 80
_LLD = 0.69
_ULD = 1.866
_DETECTORSLIT = unkn
_AUX1 = 0
_AUX2 = 0
_AUX3 = 0
_TIMESTARTED = 28
_TEMP_RATE = -1
_TEMP_DELAY = -1
_KV = 35
_MA = 40
_RANGE_WL = 1.78897
_3DPLANE = 0
_V4_ADDITIONALDETECTOR = 0
_V4_D8_DIBNUM = 1
_V4_DETECTORNAME = "Detector 1"
_V4_TTLDETECTOR = None
_V4_DETECTORTYPE = 1
_V4_DETECTORFLAGS = 524545
_V4_DETECTORHV = 687
_V4_DETECTORGAIN = 80
_V4_DETECTORLLD1 = 0.69
_V4_DETECTORWW1 = 1.176
_V4_DETECTORLLD2 = 0
_V4_DETECTORWW2 = 0
_V4_DETECTORPS = 0
_V4_DETECTORDT = 0
_V4_DETECTORPILEUPTIME = 0
_V4_COUNTERS_MASK = 1
_V4_DRIVES_MASK = 0
_V4_ENCODERS_MASK = 0
_2THETACOUNTS = 1
; 2THETA  Cnt1_D1
  40.0000        513
  40.4000        537
  40.8000        552
  41.2000        544
  41.6000        537
  42.0000        545
  42.4000        536
  42.8000        529
  43.2000        520
  43.6000        528
  44.0000        526
  44.4000        538
  44.8000        535
  45.2000        515
  45.6000        522
  46.0000        561
  46.4000        531
  46.8000        547
  47.2000        528
  47.6000        541
  48.0000        539
  48.4000        524
  48.8000        500
  49.2000        510
  49.6000        503
  50.0000        498
  50.4000        517
  50.8000        550
  51.2000        537
  51.6000        746
  52.0000       1519
  52.4000       1440
  52.8000        712
  53.2000        495
  53.6000        537
  54.0000        563
  54.4000        482
  54.8000        561
  55.2000        570
  55.6000        499
  56.0000        516
  56.4000        534
  56.8000        534
  57.2000        583
  57.6000        535
  58.0000        521
  58.4000        565
  58.8000        507
  59.2000        549
  59.6000        562
  60.0000        532
  60.4000        513
  60.8000        496
  61.2000        527
  61.6000        562
  62.0000        518
  62.4000        530
  62.8000        584
  63.2000        525
  63.6000        518
  64.0000        541
  64.4000        483
  64.8000        528
  65.2000        531
  65.6000        495
  66.0000        520
  66.4000        486
  66.8000        498
  67.2000        498
  67.6000        541
  68.0000        542
  68.4000        518
  68.8000        522
  69.2000        540
  69.6000        510
  70.0000        516
  70.4000        466
  70.8000        531
  71.2000        502
  71.6000        513
  72.0000        515
  72.4000        499
  72.8000        540
  73.2000        508
  73.6000        512
  74.0000        483
  74.4000        504
  74.8000        475
  75.2000        566
  75.6000        548
  76.0000        560
  76.4000        689
  76.8000       1013
  77.2000        970
  77.6000        634
  78.0000        535
  78.4000        492
  78.8000        524
  79.2000        532
  79.6000        536
  80.0000        473
  80.4000        520
  80.8000        470
  81.2000        557
  81.6000        516
  82.0000        485
  82.4000        512
  82.8000        536
  83.2000        530
  83.6000        533
  84.0000        522
  84.4000        517
  84.8000        513
  85.2000        489
  85.6000        526
  86.0000        514
  86.4000        488
  86.8000        512
  87.2000        499
  87.6000        508
  88.0000        512
  88.4000        518
  88.8000        551
  89.2000        536
  89.6000        535
  90.0000        604
  90.4000        524
  90.8000        493
  91.2000        558
  91.6000        495
  92.0000        493
  92.4000        494
  92.8000        577
  93.2000        516
  93.6000        489
  94.0000        493
  94.4000        530
  94.8000        478
  95.2000        497
  95.6000        504
  96.0000        505
  96.4000        500
  96.8000        531
  97.2000        513
  97.6000        547
  98.0000        500
  98.4000        590
  98.8000        918
  99.2000       1356
  99.6000       1346
 100.0000        782
 100.4000        555
 100.8000        532
 101.2000        517
 101.6000        535
 102.0000        502
 102.4000        573
 102.8000        492
 103.2000        550
 103.6000        530
 104.0000        499
 104.4000        563
 104.8000        505
 105.2000        546
 105.6000        538
 106.0000        535
 106.4000        533
 106.8000        548
 107.2000        518
 107.6000        481
 108.0000        542
 108.4000        490
 108.8000        511
 109.2000        525
 109.6000        521
 110.0000        564
 110.4000        529
 110.8000        515
 111.2000        571
 111.6000        526
 112.0000        532
 112.4000        505
 112.8000        526
 113.2000        536
 113.6000        543
 114.0000        542
 114.4000        507
 114.8000        541
 115.2000        503
 115.6000        522
 116.0000        469
 116.4000        505
 116.8000        479
 117.2000        507
 117.6000        508
 118.0000        504
 118.4000        497
 118.8000        536
 119.2000        469
 119.6000        497
 120.0000        524
 120.4000        540
 120.8000        531
 121.2000        548
 121.6000        521
 122.0000        522
 122.4000        553
 122.8000        562
 123.2000        573
 123.6000        614
 124.0000        582
 124.4000        513
 124.8000        492
 125.2000        508
 125.6000        541
 126.0000        532
 126.4000        556
 126.8000        573
 127.2000        492
 127.6000        526
 128.0000        494
 128.4000        526
 128.8000        504
 129.2000        524
 129.6000        518
 130.0000        500

; Data for range 2
_DRIVE = COUPLED
_STEPTIME = 0.2
_STEPSIZE = 0.1
_STEPMODE = C
_START = 40
_THETA = 20
_2THETA = 40
_KHI = 10.5
_PHI = 60
_X = 0
_Y = 25
_Z = 0
_DETECTOR = 1
; Detector type : Scintillation counter
_HV = 687
_GAIN = 80
_LLD = 0.69
_ULD = 1.866
_DETECTORSLIT = unkn
_AUX1 = 0
_AUX2 = 0
_AUX3 = 0
_TIMESTARTED = 225
_TEMP_RATE = -1
_TEMP_DELAY = -1
_KV = 35
_MA = 40
_RANGE_WL = 1.78897
_3DPLANE = 0
_V4_ADDITIONALDETECTOR = 0
_V4_D8_DIBNUM = 1
_V4_DETECTORNAME = "Detector 1"
_V4_TTLDETECTOR = None
_V4_DETECTORTYPE = 1
_V4_DETECTORFLAGS = 524545
_V4_DETECTORHV = 687
_V4_DETECTORGAIN = 80
_V4_DETECTORLLD1 = 0.69
_V4_DETECTORWW1 = 1.176
_V4_DETECTORLLD2 = 0
_V4_DETECTORWW2 = 0
_V4_DETECTORPS = 0
_V4_DETECTORDT = 0
_V4_DETECTORPILEUPTIME = 0
_V4_COUNTERS_MASK = 1
[...]
  60.8000        250
  61.2000        230
  61.6000        284
  62.0000        247
  62.4000        282
  62.8000        262
  63.2000        250
  63.6000        272
  64.0000        261
  64.4000        277
  64.8000        253
  65.2000        230
  65.6000        273
  66.0000        263
  66.4000        260
  66.8000        265
  67.2000        282
  67.6000        259
  68.0000        275
  68.4000        255
  68.8000        271
  69.2000        307
  69.6000        276
  70.0000        282
  70.4000        303
  70.8000        281
  71.2000        310
  71.6000        275
  72.0000        283
  72.4000        306
  72.8000        297
  73.2000        325
  73.6000        299
  74.0000        308
  74.4000        298
  74.8000        316
  75.2000        299
  75.6000        320
  76.0000        343
  76.4000        348
  76.8000        372
  77.2000        327
  77.6000        351
  78.0000        334
  78.4000        291
  78.8000        316
  79.2000        347
  79.6000        313
  80.0000        314
  80.4000        311
  80.8000        287
  81.2000        322
  81.6000        349
  82.0000        325
  82.4000        313
  82.8000        332
  83.2000        328
  83.6000        313
  84.0000        327
  84.4000        333
  84.8000        344
  85.2000        308
  85.6000        326
  86.0000        335
  86.4000        310
  86.8000        326
  87.2000        344
  87.6000        336
  88.0000        343
  88.4000        340
  88.8000        349
  89.2000        363
  89.6000        359
  90.0000        357
  90.4000        339
  90.8000        342
  91.2000        326
  91.6000        368
  92.0000        337
  92.4000        349
  92.8000        402
  93.2000        328
  93.6000        364
  94.0000        348
  94.4000        329
  94.8000        326
  95.2000        359
  95.6000        362
  96.0000        345
  96.4000        357
  96.8000        337
  97.2000        377
  97.6000        389
  98.0000        350
  98.4000        483
  98.8000        512
  99.2000        621
  99.6000        567
 100.0000        498
 100.4000        440
 100.8000        377
 101.2000        347
 101.6000        374
 102.0000        320
 102.4000        367
 102.8000        368
 103.2000        371
 103.6000        360
 104.0000        365
 104.4000        354
 104.8000        347
 105.2000        351
 105.6000        365
 106.0000        344
 106.4000        348
 106.8000        342
 107.2000        346
 107.6000        372
 108.0000        355
 108.4000        367
 108.8000        324
 109.2000        365
 109.6000        360
 110.0000        369
 110.4000        384
 110.8000        399
 111.2000        396
 111.6000        362
 112.0000        373
 112.4000        376
 112.8000        352
 113.2000        380
 113.6000        391
 114.0000        342
 114.4000        359
 114.8000        369
 115.2000        361
 115.6000        372
 116.0000        366
 116.4000        375
 116.8000        365
 117.2000        351
 117.6000        358
 118.0000        390
 118.4000        374
 118.8000        361
 119.2000        402
 119.6000        322
 120.0000        350
 120.4000        388
 120.8000        352
 121.2000        391
 121.6000        363
 122.0000        429
 122.4000        443
 122.8000        473
 123.2000        489
 123.6000        482
 124.0000        476
 124.4000        428
 124.8000        392
 125.2000        338
 125.6000        344
 126.0000        370
 126.4000        403
 126.8000        355
 127.2000        379
 127.6000        367
 128.0000        353
 128.4000        372
 128.8000        388
 129.2000        392
 129.6000        370
 130.0000        400

File: 19pct_-10G.uxd
; (content of file C:\DIFFDAT1\GIFT\MDL\Seawoong Lee\20131104_MV8\equal_area_maxkhi080_n8_2th40_130_x-25y00_-10g.raw)
_FILEVERSION = 3
_SAMPLE =
_+SAMPLE =
_SITE = Korea
_USER = Admin
_GONIOMETER_CODE = 20
; Goniometer : D8 theta/2theta, stage : Unknown
_SAMPLE_CHANGER_CODE = 0
_ATTACHMENTS_CODE = 0
_GONIOMETER_RADIUS = 300
_FIXED_DIVSLIT = 1
_FIXED_SAMPLESLIT = 0
_SOLLER_SLITS = 2
_FIXED_DETSLIT = 0.1
_MONOCHROMATOR = 0
; Incident beam monochromator : None
_SOLLER_SLITS_2 = 2
_THIN_FILM = N
_BETA_FILTER = Y
_FIXED_ANTISLIT = 0.6
_ANALYZER_CODE = 0
; Received beam analyzer : None
_DATEMEASURED = "08-Nov-2013 09:03:27"
_WL_UNIT = A
_WL1 = 1.78897
_WL2 = 1.79285
_WL3 = 1.62079
_WLRATIO = 0.5
_ANODE = Co
_V4_INF_CREATOR = XRDWizard
_V4_INF_CREATOR_VERSION = V2.9.0.22
_V4_INF_WIZARD_VERSION = V2.9.0.22
_V4_INF_WIZARD_ADDINS = V2.9.0.22
_V4_INF_WIZARD_DOCTYPE = XRD
_V4_INF_OSUSER = Postech
_V4_INF_USER = Admin
_V4_INF_SITE = Korea

; Data for range 1
_DRIVE = COUPLED
_STEPTIME = 0.2
_STEPSIZE = 0.1
_STEPMODE = C
_START = 40
_THETA = 20
_2THETA = 40
_KHI = 0
_PHI = 0
_X = -25
_Y = 0
_Z = 0
_DETECTOR = 1
; Detector type : Scintillation counter
_HV = 687
_GAIN = 80
_LLD = 0.69
_ULD = 1.866
_DETECTORSLIT = unkn
_AUX1 = 0
_AUX2 = 0
_AUX3 = 0
_TIMESTARTED = 28
_TEMP_RATE = -1
_TEMP_DELAY = -1
_KV = 35
_MA = 40
_RANGE_WL = 1.78897
_3DPLANE = 0
_V4_ADDITIONALDETECTOR = 0
_V4_D8_DIBNUM = 1
_V4_DETECTORNAME = "Detector 1"
_V4_TTLDETECTOR = None
_V4_DETECTORTYPE = 1
_V4_DETECTORFLAGS = 524545
_V4_DETECTORHV = 687
_V4_DETECTORGAIN = 80
_V4_DETECTORLLD1 = 0.69
_V4_DETECTORWW1 = 1.176
_V4_DETECTORLLD2 = 0
_V4_DETECTORWW2 = 0
_V4_DETECTORPS = 0
_V4_DETECTORDT = 0
_V4_DETECTORPILEUPTIME = 0
_V4_COUNTERS_MASK = 1
_V4_DRIVES_MASK = 0
_V4_ENCODERS_MASK = 0
_2THETACOUNTS = 1
; 2THETA  Cnt1_D1
  40.0000        547
  40.4000        520
  40.8000        573
  41.2000        482
  41.6000        497
  42.0000        577
  42.4000        549
  42.8000        553
  43.2000        519
  43.6000        498
  44.0000        514
  44.4000        499
  44.8000        524
  45.2000        506
  45.6000        537
  46.0000        505
  46.4000        517
  46.8000        520
  47.2000        533
  47.6000        469
  48.0000        528
  48.4000        559
  48.8000        531
  49.2000        483
  49.6000        567
  50.0000        555
  50.4000        493
  50.8000        549
  51.2000        567
  51.6000        759
  52.0000       1167
  52.4000       1158
  52.8000        655
  53.2000        505
  53.6000        517
  54.0000        534
  54.4000        504
  54.8000        523
  55.2000        529
  55.6000        503
  56.0000        499
  56.4000        563
  56.8000        540
  57.2000        552
  57.6000        551
  58.0000        488
  58.4000        532
  58.8000        569
  59.2000        542
  59.6000        515
  60.0000        489
  60.4000        525
  60.8000        556
  61.2000        555
  61.6000        543
  62.0000        505
  62.4000        499
  62.8000        569
  63.2000        538
  63.6000        532
  64.0000        539
  64.4000        514
  64.8000        505
  65.2000        511
  65.6000        573
  66.0000        512
  66.4000        499
  66.8000        523
  67.2000        527
  67.6000        533
  68.0000        517
  68.4000        538
  68.8000        501
  69.2000        510
  69.6000        523
  70.0000        525
  70.4000        551
  70.8000        537
  71.2000        503
  71.6000        475
  72.0000        523
  72.4000        488
  72.8000        486
  73.2000        521
  73.6000        506
  74.0000        548
  74.4000        520
  74.8000        507
  75.2000        516
  75.6000        526
  76.0000        669
  76.4000       1048
  76.8000       1294
  77.2000       1037
  77.6000        651
  78.0000        532
  78.4000        554
  78.8000        516
  79.2000        490
  79.6000        537
  80.0000        502
  80.4000        512
  80.8000        526
  81.2000        508
  81.6000        524
  82.0000        507
  82.4000        465
  82.8000        503
  83.2000        532
  83.6000        503
  84.0000        511
  84.4000        559
  84.8000        529
  85.2000        527
  85.6000        538
  86.0000        523
  86.4000        495
  86.8000        499
  87.2000        477
  87.6000        527
  88.0000        512
  88.4000        529
  88.8000        540
  89.2000        522
  89.6000        545
  90.0000        508
  90.4000        512
  90.8000        485
  91.2000        484
  91.6000        528
  92.0000        516
  92.4000        504
  92.8000        501
  93.2000        506
  93.6000        534
  94.0000        512
  94.4000        538
  94.8000        439
  95.2000        541
  95.6000        541
  96.0000        528
  96.4000        503
  96.8000        525
  97.2000        515
  97.6000        544
  98.0000        567
  98.4000        714
  98.8000       1217
  99.2000       1604
  99.6000       1314
 100.0000        806
 100.4000        602
 100.8000        527
 101.2000        524
 101.6000        513
 102.0000        533
 102.4000        527
 102.8000        521
 103.2000        522
 103.6000        527
 104.0000        543
 104.4000        489
 104.8000        531
 105.2000        487
 105.6000        507
 106.0000        531
 106.4000        504
 106.8000        560
 107.2000        516
 107.6000        542
 108.0000        493
 108.4000        474
 108.8000        534
 109.2000        478
 109.6000        530
 110.0000        527
 110.4000        518
 110.8000        493
 111.2000        509
 111.6000        540
 112.0000        522
 112.4000        510
 112.8000        506
 113.2000        500
 113.6000        493
 114.0000        515
 114.4000        486
 114.8000        496
 115.2000        472
 115.6000        452
 116.0000        537
 116.4000        514
 116.8000        525
 117.2000        501
 117.6000        489
 118.0000        484
 118.4000        523
 118.8000        529
 119.2000        500
 119.6000        511
 120.0000        461
 120.4000        510
 120.8000        545
 121.2000        504
 121.6000        514
 122.0000        474
 122.4000        525
 122.8000        499
 123.2000        558
 123.6000        542
 124.0000        575
 124.4000        511
 124.8000        494
 125.2000        507
 125.6000        504
 126.0000        525
 126.4000        562
 126.8000        543
 127.2000        525
 127.6000        496
 128.0000        511
 128.4000        467
 128.8000        531
 129.2000        514
 129.6000        503
 130.0000        497

; Data for range 2
_DRIVE = COUPLED
_STEPTIME = 0.2
_STEPSIZE = 0.1
_STEPMODE = C
_START = 40
_THETA = 20
_2THETA = 40
_KHI = 10.5
_PHI = 60
_X = -25
_Y = 0
_Z = 0
_DETECTOR = 1
; Detector type : Scintillation counter
_HV = 687
_GAIN = 80
_LLD = 0.69
_ULD = 1.866
_DETECTORSLIT = unkn
_AUX1 = 0
_AUX2 = 0
_AUX3 = 0
_TIMESTARTED = 226
_TEMP_RATE = -1
_TEMP_DELAY = -1
_KV = 35
_MA = 40
_RANGE_WL = 1.78897
_3DPLANE = 0
_V4_ADDITIONALDETECTOR = 0
_V4_D8_DIBNUM = 1
_V4_DETECTORNAME = "Detector 1"
_V4_TTLDETECTOR = None
_V4_DETECTORTYPE = 1
_V4_DETECTORFLAGS = 524545
_V4_DETECTORHV = 687
_V4_DETECTORGAIN = 80
_V4_DETECTORLLD1 = 0.69
_V4_DETECTORWW1 = 1.176
_V4_DETECTORLLD2 = 0
_V4_DETECTORWW2 = 0
_V4_DETECTORPS = 0
_V4_DETECTORDT = 0
_V4_DETECTORPILEUPTIME = 0
_V4_COUNTERS_MASK = 1
[...]
  60.8000        258
  61.2000        269
  61.6000        247
  62.0000        263
  62.4000        237
  62.8000        257
  63.2000        244
  63.6000        263
  64.0000        235
  64.4000        258
  64.8000        288
  65.2000        274
  65.6000        262
  66.0000        262
  66.4000        270
  66.8000        296
  67.2000        261
  67.6000        268
  68.0000        286
  68.4000        271
  68.8000        273
  69.2000        259
  69.6000        288
  70.0000        297
  70.4000        291
  70.8000        264
  71.2000        297
  71.6000        282
  72.0000        291
  72.4000        275
  72.8000        281
  73.2000        266
  73.6000        299
  74.0000        294
  74.4000        311
  74.8000        305
  75.2000        328
  75.6000        315
  76.0000        343
  76.4000        356
  76.8000        404
  77.2000        344
  77.6000        322
  78.0000        330
  78.4000        305
  78.8000        311
  79.2000        316
  79.6000        311
  80.0000        284
  80.4000        330
  80.8000        319
  81.2000        305
  81.6000        340
  82.0000        327
  82.4000        347
  82.8000        351
  83.2000        317
  83.6000        293
  84.0000        343
  84.4000        281
  84.8000        356
  85.2000        362
  85.6000        319
  86.0000        341
  86.4000        327
  86.8000        354
  87.2000        322
  87.6000        318
  88.0000        371
  88.4000        343
  88.8000        349
  89.2000        339
  89.6000        327
  90.0000        372
  90.4000        348
  90.8000        349
  91.2000        369
  91.6000        353
  92.0000        367
  92.4000        369
  92.8000        352
  93.2000        333
  93.6000        354
  94.0000        372
  94.4000        341
  94.8000        366
  95.2000        369
  95.6000        393
  96.0000        358
  96.4000        344
  96.8000        377
  97.2000        376
  97.6000        391
  98.0000        495
  98.4000        562
  98.8000        664
  99.2000        605
  99.6000        579
 100.0000        519
 100.4000        443
 100.8000        456
 101.2000        423
 101.6000        413
 102.0000        387
 102.4000        393
 102.8000        427
 103.2000        392
 103.6000        364
 104.0000        394
 104.4000        379
 104.8000        417
 105.2000        393
 105.6000        374
 106.0000        421
 106.4000        403
 106.8000        410
 107.2000        423
 107.6000        378
 108.0000        412
 108.4000        454
 108.8000        407
 109.2000        387
 109.6000        410
 110.0000        442
 110.4000        397
 110.8000        408
 111.2000        437
 111.6000        407
 112.0000        393
 112.4000        408
 112.8000        402
 113.2000        397
 113.6000        406
 114.0000        390
 114.4000        382
 114.8000        406
 115.2000        422
 115.6000        429
 116.0000        422
 116.4000        455
 116.8000        384
 117.2000        403
 117.6000        404
 118.0000        410
 118.4000        413
 118.8000        430
 119.2000        454
 119.6000        425
 120.0000        414
 120.4000        435
 120.8000        387
 121.2000        473
 121.6000        454
 122.0000        438
 122.4000        469
 122.8000        521
 123.2000        590
 123.6000        562
 124.0000        491
 124.4000        478
 124.8000        457
 125.2000        444
 125.6000        445
 126.0000        422
 126.4000        415
 126.8000        378
 127.2000        436
 127.6000        441
 128.0000        439
 128.4000        437
 128.8000        436
 129.2000        451
 129.6000        412
 130.0000        452