Folder: sw/exp_dat/old/exp_2013_11_11 (part 2)

File: 03pct_150G.uxd
; (content of file C:\DIFFDAT1\GIFT\MDL\Seawoong Lee\20131104_MV8\equal_area_maxkhi080_n8_2th40_130_x00y25_150g.raw)
_FILEVERSION = 3
_SAMPLE =
_+SAMPLE =
_SITE = Korea
_USER = Admin
_GONIOMETER_CODE = 20
; Goniometer : D8 theta/2theta, stage : Unknown
_SAMPLE_CHANGER_CODE = 0
_ATTACHMENTS_CODE = 0
_GONIOMETER_RADIUS = 300
_FIXED_DIVSLIT = 1
_FIXED_SAMPLESLIT = 0
_SOLLER_SLITS = 2
_FIXED_DETSLIT = 0.1
_MONOCHROMATOR = 0
; Incident beam monochromator : None
_SOLLER_SLITS_2 = 2
_THIN_FILM = N
_BETA_FILTER = Y
_FIXED_ANTISLIT = 0.6
_ANALYZER_CODE = 0
; Received beam analyzer : None
_DATEMEASURED = "06-Nov-2013 03:42:28"
_WL_UNIT = A
_WL1 = 1.78897
_WL2 = 1.79285
_WL3 = 1.62079
_WLRATIO = 0.5
_ANODE = Co
_V4_INF_CREATOR = XRDWizard
_V4_INF_CREATOR_VERSION = V2.9.0.22
_V4_INF_WIZARD_VERSION = V2.9.0.22
_V4_INF_WIZARD_ADDINS = V2.9.0.22
_V4_INF_WIZARD_DOCTYPE = XRD
_V4_INF_OSUSER = Postech
_V4_INF_USER = Admin
_V4_INF_SITE = Korea

; Data for range 1
_DRIVE = COUPLED
_STEPTIME = 0.2
_STEPSIZE = 0.1
_STEPMODE = C
_START = 40
_THETA = 20
_2THETA = 40
_KHI = 0
_PHI = 0
_X = 0
_Y = 25
_Z = 0
_DETECTOR = 1
; Detector type : Scintillation counter
_HV = 687
_GAIN = 80
_LLD = 0.69
_ULD = 1.866
_DETECTORSLIT = unkn
_AUX1 = 0
_AUX2 = 0
_AUX3 = 0
_TIMESTARTED = 28
_TEMP_RATE = -1
_TEMP_DELAY = -1
_KV = 35
_MA = 40
_RANGE_WL = 1.78897
_3DPLANE = 0
_V4_ADDITIONALDETECTOR = 0
_V4_D8_DIBNUM = 1
_V4_DETECTORNAME = "Detector 1"
_V4_TTLDETECTOR = None
_V4_DETECTORTYPE = 1
_V4_DETECTORFLAGS = 524545
_V4_DETECTORHV = 687
_V4_DETECTORGAIN = 80
_V4_DETECTORLLD1 = 0.69
_V4_DETECTORWW1 = 1.176
_V4_DETECTORLLD2 = 0
_V4_DETECTORWW2 = 0
_V4_DETECTORPS = 0
_V4_DETECTORDT = 0
_V4_DETECTORPILEUPTIME = 0
_V4_COUNTERS_MASK = 1
_V4_DRIVES_MASK = 0
_V4_ENCODERS_MASK = 0
_2THETACOUNTS = 1
; 2THETA  Cnt1_D1
  40.0000        477
  40.4000        493
  40.8000        435
  41.2000        516
  41.6000        530
  42.0000        488
  42.4000        513
  42.8000        498
  43.2000        492
  43.6000        546
  44.0000        519
  44.4000        527
  44.8000        506
  45.2000        545
  45.6000        530
  46.0000        517
  46.4000        490
  46.8000        519
  47.2000        493
  47.6000        491
  48.0000        477
  48.4000        515
  48.8000        508
  49.2000        467
  49.6000        507
  50.0000        492
  50.4000        548
  50.8000        560
  51.2000        615
  51.6000        641
  52.0000        974
  52.4000       1037
  52.8000        634
  53.2000        530
  53.6000        522
  54.0000        524
  54.4000        510
  54.8000        519
  55.2000        524
  55.6000        545
  56.0000        504
  56.4000        537
  56.8000        539
  57.2000        526
  57.6000        532
  58.0000        504
  58.4000        516
  58.8000        521
  59.2000        555
  59.6000        587
  60.0000        545
  60.4000        534
  60.8000        487
  61.2000        515
  61.6000        494
  62.0000        508
  62.4000        518
  62.8000        551
  63.2000        475
  63.6000        506
  64.0000        488
  64.4000        508
  64.8000        502
  65.2000        508
  65.6000        530
  66.0000        502
  66.4000        544
  66.8000        500
  67.2000        481
  67.6000        508
  68.0000        556
  68.4000        507
  68.8000        538
  69.2000        496
  69.6000        563
  70.0000        499
  70.4000        538
  70.8000        533
  71.2000        469
  71.6000        482
  72.0000        540
  72.4000        481
  72.8000        501
  73.2000        509
  73.6000        516
  74.0000        486
  74.4000        505
  74.8000        506
  75.2000        498
  75.6000        569
  76.0000        612
  76.4000        876
  76.8000       1247
  77.2000       1024
  77.6000        627
  78.0000        567
  78.4000        495
  78.8000        544
  79.2000        505
  79.6000        494
  80.0000        503
  80.4000        500
  80.8000        476
  81.2000        510
  81.6000        518
  82.0000        539
  82.4000        531
  82.8000        539
  83.2000        519
  83.6000        542
  84.0000        493
  84.4000        512
  84.8000        521
  85.2000        511
  85.6000        497
  86.0000        520
  86.4000        527
  86.8000        490
  87.2000        502
  87.6000        493
  88.0000        552
  88.4000        539
  88.8000        563
  89.2000        666
  89.6000        655
  90.0000        605
  90.4000        570
  90.8000        500
  91.2000        547
  91.6000        503
  92.0000        529
  92.4000        489
  92.8000        515
  93.2000        530
  93.6000        537
  94.0000        531
  94.4000        476
  94.8000        485
  95.2000        500
  95.6000        510
  96.0000        505
  96.4000        503
  96.8000        521
  97.2000        531
  97.6000        495
  98.0000        531
  98.4000        606
  98.8000       1037
  99.2000       1543
  99.6000       1471
 100.0000        827
 100.4000        592
 100.8000        610
 101.2000        545
 101.6000        502
 102.0000        511
 102.4000        558
 102.8000        537
 103.2000        508
 103.6000        545
 104.0000        511
 104.4000        534
 104.8000        546
 105.2000        492
 105.6000        492
 106.0000        508
 106.4000        486
 106.8000        529
 107.2000        503
 107.6000        493
 108.0000        526
 108.4000        491
 108.8000        563
 109.2000        547
 109.6000        478
 110.0000        497
 110.4000        551
 110.8000        511
 111.2000        572
 111.6000        531
 112.0000        501
 112.4000        491
 112.8000        513
 113.2000        460
 113.6000        499
 114.0000        532
 114.4000        487
 114.8000        527
 115.2000        454
 115.6000        522
 116.0000        500
 116.4000        524
 116.8000        513
 117.2000        502
 117.6000        512
 118.0000        530
 118.4000        508
 118.8000        507
 119.2000        565
 119.6000        474
 120.0000        463
 120.4000        517
 120.8000        500
 121.2000        511
 121.6000        532
 122.0000        470
 122.4000        551
 122.8000        531
 123.2000        546
 123.6000        539
 124.0000        506
 124.4000        554
 124.8000        494
 125.2000        534
 125.6000        453
 126.0000        485
 126.4000        483
 126.8000        529
 127.2000        517
 127.6000        553
 128.0000        521
 128.4000        503
 128.8000        506
 129.2000        502
 129.6000        521
 130.0000        514

; Data for range 2
_DRIVE = COUPLED
_STEPTIME = 0.2
_STEPSIZE = 0.1
_STEPMODE = C
_START = 40
_THETA = 20
_2THETA = 40
_KHI = 10.5
_PHI = 60
_X = 0
_Y = 25
_Z = 0
_DETECTOR = 1
; Detector type : Scintillation counter
_HV = 687
_GAIN = 80
_LLD = 0.69
_ULD = 1.866
_DETECTORSLIT = unkn
_AUX1 = 0
_AUX2 = 0
_AUX3 = 0
_TIMESTARTED = 225
_TEMP_RATE = -1
_TEMP_DELAY = -1
_KV = 35
_MA = 40
_RANGE_WL = 1.78897
_3DPLANE = 0
_V4_ADDITIONALDETECTOR = 0
_V4_D8_DIBNUM = 1
_V4_DETECTORNAME = "Detector 1"
_V4_TTLDETECTOR = None
_V4_DETECTORTYPE = 1
_V4_DETECTORFLAGS = 524545
_V4_DETECTORHV = 687
_V4_DETECTORGAIN = 80
_V4_DETECTORLLD1 = 0.69
_V4_DETECTORWW1 = 1.176
_V4_DETECTORLLD2 = 0
_V4_DETECTORWW2 = 0
_V4_DETECTORPS = 0
_V4_DETECTORDT = 0
_V4_DETECTORPILEUPTIME = 0
_V4_COUNTERS_MASK = 1
[...]
  60.8000        210
  61.2000        188
  61.6000        186
  62.0000        236
  62.4000        224
  62.8000        203
  63.2000        197
  63.6000        243
  64.0000        203
  64.4000        234
  64.8000        218
  65.2000        237
  65.6000        225
  66.0000        244
  66.4000        258
  66.8000        220
  67.2000        244
  67.6000        230
  68.0000        241
  68.4000        236
  68.8000        231
  69.2000        254
  69.6000        262
  70.0000        250
  70.4000        232
  70.8000        217
  71.2000        226
  71.6000        224
  72.0000        246
  72.4000        235
  72.8000        218
  73.2000        247
  73.6000        237
  74.0000        231
  74.4000        269
  74.8000        259
  75.2000        231
  75.6000        261
  76.0000        247
  76.4000        274
  76.8000        282
  77.2000        285
  77.6000        331
  78.0000        269
  78.4000        290
  78.8000        245
  79.2000        253
  79.6000        273
  80.0000        271
  80.4000        282
  80.8000        272
  81.2000        281
  81.6000        283
  82.0000        286
  82.4000        271
  82.8000        310
  83.2000        262
  83.6000        259
  84.0000        263
  84.4000        282
  84.8000        274
  85.2000        283
  85.6000        288
  86.0000        283
  86.4000        291
  86.8000        283
  87.2000        280
  87.6000        302
  88.0000        274
  88.4000        287
  88.8000        311
  89.2000        278
  89.6000        267
  90.0000        316
  90.4000        293
  90.8000        307
  91.2000        310
  91.6000        336
  92.0000        314
  92.4000        339
  92.8000        280
  93.2000        300
  93.6000        316
  94.0000        315
  94.4000        316
  94.8000        334
  95.2000        334
  95.6000        299
  96.0000        305
  96.4000        324
  96.8000        333
  97.2000        341
  97.6000        313
  98.0000        349
  98.4000        380
  98.8000        445
  99.2000        490
  99.6000        457
 100.0000        500
 100.4000        383
 100.8000        337
 101.2000        378
 101.6000        331
 102.0000        364
 102.4000        379
 102.8000        308
 103.2000        350
 103.6000        360
 104.0000        347
 104.4000        362
 104.8000        369
 105.2000        358
 105.6000        351
 106.0000        360
 106.4000        399
 106.8000        378
 107.2000        391
 107.6000        380
 108.0000        375
 108.4000        388
 108.8000        364
 109.2000        377
 109.6000        416
 110.0000        383
 110.4000        398
 110.8000        384
 111.2000        385
 111.6000        412
 112.0000        359
 112.4000        368
 112.8000        374
 113.2000        385
 113.6000        383
 114.0000        359
 114.4000        380
 114.8000        403
 115.2000        417
 115.6000        377
 116.0000        349
 116.4000        391
 116.8000        371
 117.2000        373
 117.6000        384
 118.0000        412
 118.4000        400
 118.8000        407
 119.2000        417
 119.6000        404
 120.0000        391
 120.4000        403
 120.8000        348
 121.2000        412
 121.6000        410
 122.0000        437
 122.4000        470
 122.8000        449
 123.2000        456
 123.6000        463
 124.0000        501
 124.4000        445
 124.8000        424
 125.2000        397
 125.6000        422
 126.0000        416
 126.4000        441
 126.8000        381
 127.2000        426
 127.6000        393
 128.0000        378
 128.4000        374
 128.8000        364
 129.2000        372
 129.6000        362
 130.0000        413

File: 04pct_100L.uxd
; (content of file C:\DIFFDAT1\GIFT\MDL\Seawoong Lee\20131104_MV8\equal_area_maxkhi080_n8_2th40_130_x25y25_100L.raw)
_FILEVERSION = 3
_SAMPLE =
_+SAMPLE =
_SITE = Korea
_USER = Admin
_GONIOMETER_CODE = 20
; Goniometer : D8 theta/2theta, stage : Unknown
_SAMPLE_CHANGER_CODE = 0
_ATTACHMENTS_CODE = 0
_GONIOMETER_RADIUS = 300
_FIXED_DIVSLIT = 1
_FIXED_SAMPLESLIT = 0
_SOLLER_SLITS = 2
_FIXED_DETSLIT = 0.1
_MONOCHROMATOR = 0
; Incident beam monochromator : None
_SOLLER_SLITS_2 = 2
_THIN_FILM = N
_BETA_FILTER = Y
_FIXED_ANTISLIT = 0.6
_ANALYZER_CODE = 0
; Received beam analyzer : None
_DATEMEASURED = "05-Nov-2013 18:58:38"
_WL_UNIT = A
_WL1 = 1.78897
_WL2 = 1.79285
_WL3 = 1.62079
_WLRATIO = 0.5
_ANODE = Co
_V4_INF_CREATOR = XRDWizard
_V4_INF_CREATOR_VERSION = V2.9.0.22
_V4_INF_WIZARD_VERSION = V2.9.0.22
_V4_INF_WIZARD_ADDINS = V2.9.0.22
_V4_INF_WIZARD_DOCTYPE = XRD
_V4_INF_OSUSER = Postech
_V4_INF_USER = Admin
_V4_INF_SITE = Korea

; Data for range 1
_DRIVE = COUPLED
_STEPTIME = 0.2
_STEPSIZE = 0.1
_STEPMODE = C
_START = 40
_THETA = 20
_2THETA = 40
_KHI = 0
_PHI = 0
_X = 25
_Y = 25
_Z = 0
_DETECTOR = 1
; Detector type : Scintillation counter
_HV = 687
_GAIN = 80
_LLD = 0.69
_ULD = 1.866
_DETECTORSLIT = unkn
_AUX1 = 0
_AUX2 = 0
_AUX3 = 0
_TIMESTARTED = 28
_TEMP_RATE = -1
_TEMP_DELAY = -1
_KV = 35
_MA = 40
_RANGE_WL = 1.78897
_3DPLANE = 0
_V4_ADDITIONALDETECTOR = 0
_V4_D8_DIBNUM = 1
_V4_DETECTORNAME = "Detector 1"
_V4_TTLDETECTOR = None
_V4_DETECTORTYPE = 1
_V4_DETECTORFLAGS = 524545
_V4_DETECTORHV = 687
_V4_DETECTORGAIN = 80
_V4_DETECTORLLD1 = 0.69
_V4_DETECTORWW1 = 1.176
_V4_DETECTORLLD2 = 0
_V4_DETECTORWW2 = 0
_V4_DETECTORPS = 0
_V4_DETECTORDT = 0
_V4_DETECTORPILEUPTIME = 0
_V4_COUNTERS_MASK = 1
_V4_DRIVES_MASK = 0
_V4_ENCODERS_MASK = 0
_2THETACOUNTS = 1
; 2THETA  Cnt1_D1
  40.0000        439
  40.4000        417
  40.8000        414
  41.2000        449
  41.6000        441
  42.0000        468
  42.4000        467
  42.8000        452
  43.2000        504
  43.6000        456
  44.0000        461
  44.4000        455
  44.8000        442
  45.2000        469
  45.6000        453
  46.0000        475
  46.4000        476
  46.8000        456
  47.2000        454
  47.6000        476
  48.0000        506
  48.4000        476
  48.8000        502
  49.2000        509
  49.6000        459
  50.0000        545
  50.4000        532
  50.8000        604
  51.2000        600
  51.6000        731
  52.0000       1595
  52.4000       1423
  52.8000        607
  53.2000        453
  53.6000        524
  54.0000        484
  54.4000        519
  54.8000        499
  55.2000        526
  55.6000        562
  56.0000        506
  56.4000        497
  56.8000        466
  57.2000        527
  57.6000        520
  58.0000        510
  58.4000        497
  58.8000        470
  59.2000        521
  59.6000        569
  60.0000        518
  60.4000        512
  60.8000        509
  61.2000        477
  61.6000        486
  62.0000        527
  62.4000        519
  62.8000        480
  63.2000        516
  63.6000        498
  64.0000        531
  64.4000        524
  64.8000        515
  65.2000        473
  65.6000        517
  66.0000        469
  66.4000        517
  66.8000        467
  67.2000        492
  67.6000        515
  68.0000        479
  68.4000        518
  68.8000        480
  69.2000        511
  69.6000        461
  70.0000        498
  70.4000        482
  70.8000        520
  71.2000        496
  71.6000        492
  72.0000        508
  72.4000        471
  72.8000        489
  73.2000        521
  73.6000        513
  74.0000        482
  74.4000        511
  74.8000        527
  75.2000        534
  75.6000        514
  76.0000        550
  76.4000        667
  76.8000        938
  77.2000        828
  77.6000        579
  78.0000        532
  78.4000        502
  78.8000        527
  79.2000        497
  79.6000        461
  80.0000        464
  80.4000        476
  80.8000        532
  81.2000        491
  81.6000        506
  82.0000        497
  82.4000        487
  82.8000        474
  83.2000        469
  83.6000        537
  84.0000        483
  84.4000        480
  84.8000        520
  85.2000        508
  85.6000        497
  86.0000        503
  86.4000        504
  86.8000        455
  87.2000        495
  87.6000        494
  88.0000        497
  88.4000        485
  88.8000        610
  89.2000        718
  89.6000        704
  90.0000        546
  90.4000        496
  90.8000        499
  91.2000        590
  91.6000        504
  92.0000        490
  92.4000        514
  92.8000        475
  93.2000        512
  93.6000        566
  94.0000        536
  94.4000        547
  94.8000        509
  95.2000        526
  95.6000        490
  96.0000        503
  96.4000        537
  96.8000        542
  97.2000        539
  97.6000        523
  98.0000        495
  98.4000        548
  98.8000        845
  99.2000       1251
  99.6000       1209
 100.0000        732
 100.4000        506
 100.8000        500
 101.2000        492
 101.6000        487
 102.0000        518
 102.4000        499
 102.8000        467
 103.2000        524
 103.6000        520
 104.0000        524
 104.4000        478
 104.8000        490
 105.2000        488
 105.6000        521
 106.0000        531
 106.4000        477
 106.8000        536
 107.2000        487
 107.6000        489
 108.0000        485
 108.4000        471
 108.8000        529
 109.2000        501
 109.6000        508
 110.0000        523
 110.4000        536
 110.8000        582
 111.2000        654
 111.6000        584
 112.0000        515
 112.4000        503
 112.8000        552
 113.2000        463
 113.6000        485
 114.0000        473
 114.4000        488
 114.8000        494
 115.2000        489
 115.6000        533
 116.0000        516
 116.4000        492
 116.8000        506
 117.2000        517
 117.6000        505
 118.0000        479
 118.4000        501
 118.8000        524
 119.2000        519
 119.6000        468
 120.0000        499
 120.4000        489
 120.8000        489
 121.2000        511
 121.6000        471
 122.0000        493
 122.4000        524
 122.8000        505
 123.2000        603
 123.6000        575
 124.0000        510
 124.4000        525
 124.8000        521
 125.2000        551
 125.6000        533
 126.0000        543
 126.4000        517
 126.8000        507
 127.2000        512
 127.6000        520
 128.0000        519
 128.4000        504
 128.8000        550
 129.2000        464
 129.6000        508
 130.0000        517

; Data for range 2
_DRIVE = COUPLED
_STEPTIME = 0.2
_STEPSIZE = 0.1
_STEPMODE = C
_START = 40
_THETA = 20
_2THETA = 40
_KHI = 10.5
_PHI = 60
_X = 25
_Y = 25
_Z = 0
_DETECTOR = 1
; Detector type : Scintillation counter
_HV = 687
_GAIN = 80
_LLD = 0.69
_ULD = 1.866
_DETECTORSLIT = unkn
_AUX1 = 0
_AUX2 = 0
_AUX3 = 0
_TIMESTARTED = 225
_TEMP_RATE = -1
_TEMP_DELAY = -1
_KV = 35
_MA = 40
_RANGE_WL = 1.78897
_3DPLANE = 0
_V4_ADDITIONALDETECTOR = 0
_V4_D8_DIBNUM = 1
_V4_DETECTORNAME = "Detector 1"
_V4_TTLDETECTOR = None
_V4_DETECTORTYPE = 1
_V4_DETECTORFLAGS = 524545
_V4_DETECTORHV = 687
_V4_DETECTORGAIN = 80
_V4_DETECTORLLD1 = 0.69
_V4_DETECTORWW1 = 1.176
_V4_DETECTORLLD2 = 0
_V4_DETECTORWW2 = 0
_V4_DETECTORPS = 0
_V4_DETECTORDT = 0
_V4_DETECTORPILEUPTIME = 0
_V4_COUNTERS_MASK = 1
[...]
  60.8000        176
  61.2000        199
  61.6000        171
  62.0000        203
  62.4000        188
  62.8000        197
  63.2000        194
  63.6000        199
  64.0000        234
  64.4000        207
  64.8000        198
  65.2000        179
  65.6000        186
  66.0000        200
  66.4000        205
  66.8000        237
  67.2000        214
  67.6000        186
  68.0000        185
  68.4000        200
  68.8000        213
  69.2000        250
  69.6000        223
  70.0000        201
  70.4000        215
  70.8000        207
  71.2000        223
  71.6000        215
  72.0000        178
  72.4000        207
  72.8000        203
  73.2000        197
  73.6000        210
  74.0000        248
  74.4000        217
  74.8000        239
  75.2000        233
  75.6000        250
  76.0000        215
  76.4000        256
  76.8000        271
  77.2000        288
  77.6000        264
  78.0000        238
  78.4000        221
  78.8000        221
  79.2000        222
  79.6000        223
  80.0000        241
  80.4000        244
  80.8000        247
  81.2000        231
  81.6000        228
  82.0000        248
  82.4000        241
  82.8000        261
  83.2000        232
  83.6000        240
  84.0000        261
  84.4000        259
  84.8000        238
  85.2000        216
  85.6000        259
  86.0000        232
  86.4000        229
  86.8000        220
  87.2000        262
  87.6000        240
  88.0000        245
  88.4000        276
  88.8000        252
  89.2000        265
  89.6000        285
  90.0000        253
  90.4000        235
  90.8000        279
  91.2000        270
  91.6000        263
  92.0000        286
  92.4000        245
  92.8000        271
  93.2000        267
  93.6000        271
  94.0000        265
  94.4000        310
  94.8000        289
  95.2000        281
  95.6000        292
  96.0000        281
  96.4000        290
  96.8000        290
  97.2000        285
  97.6000        268
  98.0000        311
  98.4000        343
  98.8000        362
  99.2000        399
  99.6000        453
 100.0000        370
 100.4000        348
 100.8000        318
 101.2000        299
 101.6000        311
 102.0000        289
 102.4000        298
 102.8000        310
 103.2000        319
 103.6000        316
 104.0000        309
 104.4000        333
 104.8000        308
 105.2000        293
 105.6000        298
 106.0000        301
 106.4000        347
 106.8000        328
 107.2000        342
 107.6000        307
 108.0000        371
 108.4000        296
 108.8000        314
 109.2000        312
 109.6000        314
 110.0000        349
 110.4000        368
 110.8000        373
 111.2000        383
 111.6000        384
 112.0000        324
 112.4000        353
 112.8000        319
 113.2000        385
 113.6000        342
 114.0000        309
 114.4000        369
 114.8000        336
 115.2000        369
 115.6000        350
 116.0000        375
 116.4000        366
 116.8000        363
 117.2000        369
 117.6000        343
 118.0000        362
 118.4000        376
 118.8000        373
 119.2000        372
 119.6000        355
 120.0000        368
 120.4000        348
 120.8000        350
 121.2000        374
 121.6000        349
 122.0000        367
 122.4000        400
 122.8000        472
 123.2000        495
 123.6000        492
 124.0000        444
 124.4000        436
 124.8000        410
 125.2000        343
 125.6000        355
 126.0000        374
 126.4000        354
 126.8000        377
 127.2000        403
 127.6000        390
 128.0000        372
 128.4000        342
 128.8000        397
 129.2000        341
 129.6000        379
 130.0000        361