Folder: sw/exp_dat/old/exp_2013_11_11 (part 10)

File: 20pct_-20L.uxd
; (content of file C:\DIFFDAT1\GIFT\MDL\Seawoong Lee\20131104_MV8\equal_area_maxkhi080_n8_2th40_130_x-25y-25_-20L.raw)
_FILEVERSION = 3
_SAMPLE =
_+SAMPLE =
_SITE = Korea
_USER = Admin
_GONIOMETER_CODE = 20
; Goniometer : D8 theta/2theta, stage : Unknown
_SAMPLE_CHANGER_CODE = 0
_ATTACHMENTS_CODE = 0
_GONIOMETER_RADIUS = 300
_FIXED_DIVSLIT = 1
_FIXED_SAMPLESLIT = 0
_SOLLER_SLITS = 2
_FIXED_DETSLIT = 0.1
_MONOCHROMATOR = 0
; Incident beam monochromator : None
_SOLLER_SLITS_2 = 2
_THIN_FILM = N
_BETA_FILTER = Y
_FIXED_ANTISLIT = 0.6
_ANALYZER_CODE = 0
; Received beam analyzer : None
_DATEMEASURED = "07-Nov-2013 06:45:07"
_WL_UNIT = A
_WL1 = 1.78897
_WL2 = 1.79285
_WL3 = 1.62079
_WLRATIO = 0.5
_ANODE = Co
_V4_INF_CREATOR = XRDWizard
_V4_INF_CREATOR_VERSION = V2.9.0.22
_V4_INF_WIZARD_VERSION = V2.9.0.22
_V4_INF_WIZARD_ADDINS = V2.9.0.22
_V4_INF_WIZARD_DOCTYPE = XRD
_V4_INF_OSUSER = Postech
_V4_INF_USER = Admin
_V4_INF_SITE = Korea

; Data for range 1
_DRIVE = COUPLED
_STEPTIME = 0.2
_STEPSIZE = 0.1
_STEPMODE = C
_START = 40
_THETA = 20
_2THETA = 40
_KHI = 0
_PHI = 0
_X = -25
_Y = -25
_Z = 0
_DETECTOR = 1
; Detector type : Scintillation counter
_HV = 687
_GAIN = 80
_LLD = 0.69
_ULD = 1.866
_DETECTORSLIT = unkn
_AUX1 = 0
_AUX2 = 0
_AUX3 = 0
_TIMESTARTED = 29
_TEMP_RATE = -1
_TEMP_DELAY = -1
_KV = 35
_MA = 40
_RANGE_WL = 1.78897
_3DPLANE = 0
_V4_ADDITIONALDETECTOR = 0
_V4_D8_DIBNUM = 1
_V4_DETECTORNAME = "Detector 1"
_V4_TTLDETECTOR = None
_V4_DETECTORTYPE = 1
_V4_DETECTORFLAGS = 524545
_V4_DETECTORHV = 687
_V4_DETECTORGAIN = 80
_V4_DETECTORLLD1 = 0.69
_V4_DETECTORWW1 = 1.176
_V4_DETECTORLLD2 = 0
_V4_DETECTORWW2 = 0
_V4_DETECTORPS = 0
_V4_DETECTORDT = 0
_V4_DETECTORPILEUPTIME = 0
_V4_COUNTERS_MASK = 1
_V4_DRIVES_MASK = 0
_V4_ENCODERS_MASK = 0
_2THETACOUNTS = 1
; 2THETA  Cnt1_D1
  40.0000        499
  40.4000        503
  40.8000        487
  41.2000        504
  41.6000        513
  42.0000        460
  42.4000        514
  42.8000        499
  43.2000        514
  43.6000        505
  44.0000        486
  44.4000        499
  44.8000        505
  45.2000        512
  45.6000        572
  46.0000        490
  46.4000        518
  46.8000        531
  47.2000        530
  47.6000        503
  48.0000        542
  48.4000        523
  48.8000        528
  49.2000        552
  49.6000        519
  50.0000        507
  50.4000        561
  50.8000        567
  51.2000        556
  51.6000        887
  52.0000       1544
  52.4000       1482
  52.8000        665
  53.2000        518
  53.6000        564
  54.0000        496
  54.4000        527
  54.8000        506
  55.2000        509
  55.6000        527
  56.0000        521
  56.4000        520
  56.8000        483
  57.2000        558
  57.6000        512
  58.0000        567
  58.4000        529
  58.8000        533
  59.2000        522
  59.6000        530
  60.0000        542
  60.4000        529
  60.8000        505
  61.2000        511
  61.6000        516
  62.0000        542
  62.4000        532
  62.8000        551
  63.2000        500
  63.6000        499
  64.0000        486
  64.4000        557
  64.8000        505
  65.2000        476
  65.6000        514
  66.0000        533
  66.4000        504
  66.8000        515
  67.2000        532
  67.6000        425
  68.0000        464
  68.4000        539
  68.8000        530
  69.2000        526
  69.6000        538
  70.0000        499
  70.4000        511
  70.8000        510
  71.2000        509
  71.6000        508
  72.0000        533
  72.4000        493
  72.8000        516
  73.2000        486
  73.6000        491
  74.0000        546
  74.4000        496
  74.8000        478
  75.2000        511
  75.6000        545
  76.0000        588
  76.4000        777
  76.8000       1066
  77.2000        965
  77.6000        646
  78.0000        528
  78.4000        525
  78.8000        519
  79.2000        541
  79.6000        534
  80.0000        538
  80.4000        463
  80.8000        565
  81.2000        509
  81.6000        489
  82.0000        489
  82.4000        525
  82.8000        515
  83.2000        510
  83.6000        504
  84.0000        533
  84.4000        503
  84.8000        505
  85.2000        497
  85.6000        555
  86.0000        511
  86.4000        519
  86.8000        582
  87.2000        497
  87.6000        513
  88.0000        521
  88.4000        500
  88.8000        529
  89.2000        540
  89.6000        547
  90.0000        551
  90.4000        508
  90.8000        532
  91.2000        527
  91.6000        533
  92.0000        556
  92.4000        517
  92.8000        511
  93.2000        573
  93.6000        510
  94.0000        509
  94.4000        549
  94.8000        518
  95.2000        463
  95.6000        536
  96.0000        562
  96.4000        547
  96.8000        511
  97.2000        559
  97.6000        525
  98.0000        569
  98.4000        640
  98.8000       1001
  99.2000       1432
  99.6000       1301
 100.0000        732
 100.4000        563
 100.8000        522
 101.2000        554
 101.6000        537
 102.0000        555
 102.4000        549
 102.8000        527
 103.2000        527
 103.6000        526
 104.0000        514
 104.4000        523
 104.8000        508
 105.2000        549
 105.6000        561
 106.0000        524
 106.4000        514
 106.8000        486
 107.2000        490
 107.6000        491
 108.0000        523
 108.4000        529
 108.8000        485
 109.2000        497
 109.6000        541
 110.0000        536
 110.4000        542
 110.8000        506
 111.2000        533
 111.6000        498
 112.0000        519
 112.4000        508
 112.8000        500
 113.2000        524
 113.6000        509
 114.0000        514
 114.4000        512
 114.8000        500
 115.2000        546
 115.6000        542
 116.0000        530
 116.4000        549
 116.8000        546
 117.2000        496
 117.6000        510
 118.0000        518
 118.4000        536
 118.8000        485
 119.2000        528
 119.6000        535
 120.0000        491
 120.4000        518
 120.8000        509
 121.2000        470
 121.6000        496
 122.0000        507
 122.4000        512
 122.8000        559
 123.2000        603
 123.6000        593
 124.0000        561
 124.4000        558
 124.8000        493
 125.2000        527
 125.6000        515
 126.0000        501
 126.4000        503
 126.8000        532
 127.2000        532
 127.6000        539
 128.0000        510
 128.4000        522
 128.8000        572
 129.2000        539
 129.6000        523
 130.0000        520

; Data for range 2
_DRIVE = COUPLED
_STEPTIME = 0.2
_STEPSIZE = 0.1
_STEPMODE = C
_START = 40
_THETA = 20
_2THETA = 40
_KHI = 10.5
_PHI = 60
_X = -25
_Y = -25
_Z = 0
_DETECTOR = 1
; Detector type : Scintillation counter
_HV = 687
_GAIN = 80
_LLD = 0.69
_ULD = 1.866
_DETECTORSLIT = unkn
_AUX1 = 0
_AUX2 = 0
_AUX3 = 0
_TIMESTARTED = 225
_TEMP_RATE = -1
_TEMP_DELAY = -1
_KV = 35
_MA = 40
_RANGE_WL = 1.78897
_3DPLANE = 0
_V4_ADDITIONALDETECTOR = 0
_V4_D8_DIBNUM = 1
_V4_DETECTORNAME = "Detector 1"
_V4_TTLDETECTOR = None
_V4_DETECTORTYPE = 1
_V4_DETECTORFLAGS = 524545
_V4_DETECTORHV = 687
_V4_DETECTORGAIN = 80
_V4_DETECTORLLD1 = 0.69
_V4_DETECTORWW1 = 1.176
_V4_DETECTORLLD2 = 0
_V4_DETECTORWW2 = 0
_V4_DETECTORPS = 0
_V4_DETECTORDT = 0
_V4_DETECTORPILEUPTIME = 0
[...]
  60.8000        196
  61.2000        202
  61.6000        214
  62.0000        204
  62.4000        180
  62.8000        186
  63.2000        184
  63.6000        177
  64.0000        199
  64.4000        214
  64.8000        222
  65.2000        218
  65.6000        259
  66.0000        205
  66.4000        218
  66.8000        204
  67.2000        220
  67.6000        214
  68.0000        227
  68.4000        200
  68.8000        225
  69.2000        226
  69.6000        228
  70.0000        224
  70.4000        212
  70.8000        256
  71.2000        235
  71.6000        239
  72.0000        239
  72.4000        245
  72.8000        212
  73.2000        236
  73.6000        247
  74.0000        240
  74.4000        230
  74.8000        244
  75.2000        257
  75.6000        249
  76.0000        250
  76.4000        279
  76.8000        292
  77.2000        297
  77.6000        304
  78.0000        250
  78.4000        277
  78.8000        264
  79.2000        278
  79.6000        280
  80.0000        268
  80.4000        235
  80.8000        261
  81.2000        255
  81.6000        270
  82.0000        261
  82.4000        284
  82.8000        267
  83.2000        253
  83.6000        274
  84.0000        249
  84.4000        274
  84.8000        272
  85.2000        288
  85.6000        292
  86.0000        259
  86.4000        312
  86.8000        267
  87.2000        291
  87.6000        302
  88.0000        284
  88.4000        258
  88.8000        306
  89.2000        299
  89.6000        307
  90.0000        293
  90.4000        317
  90.8000        297
  91.2000        292
  91.6000        283
  92.0000        303
  92.4000        301
  92.8000        317
  93.2000        290
  93.6000        322
  94.0000        302
  94.4000        317
  94.8000        321
  95.2000        316
  95.6000        310
  96.0000        297
  96.4000        321
  96.8000        299
  97.2000        350
  97.6000        326
  98.0000        341
  98.4000        394
  98.8000        505
  99.2000        563
  99.6000        495
 100.0000        510
 100.4000        396
 100.8000        348
 101.2000        314
 101.6000        357
 102.0000        308
 102.4000        340
 102.8000        335
 103.2000        341
 103.6000        290
 104.0000        346
 104.4000        338
 104.8000        320
 105.2000        339
 105.6000        334
 106.0000        352
 106.4000        331
 106.8000        328
 107.2000        365
 107.6000        313
 108.0000        346
 108.4000        332
 108.8000        348
 109.2000        361
 109.6000        350
 110.0000        379
 110.4000        378
 110.8000        379
 111.2000        343
 111.6000        335
 112.0000        385
 112.4000        363
 112.8000        364
 113.2000        372
 113.6000        338
 114.0000        328
 114.4000        357
 114.8000        405
 115.2000        360
 115.6000        371
 116.0000        381
 116.4000        389
 116.8000        369
 117.2000        383
 117.6000        426
 118.0000        373
 118.4000        363
 118.8000        409
 119.2000        417
 119.6000        381
 120.0000        375
 120.4000        350
 120.8000        391
 121.2000        412
 121.6000        385
 122.0000        420
 122.4000        453
 122.8000        478
 123.2000        516
 123.6000        451
 124.0000        479
 124.4000        413
 124.8000        389
 125.2000        385
 125.6000        403
 126.0000        394
 126.4000        382
 126.8000        369
 127.2000        336
 127.6000        424
 128.0000        383
 128.4000        391
 128.8000        398
 129.2000        398
 129.6000        359
 130.0000        396

File: 21pct_-20G.uxd
; (content of file C:\DIFFDAT1\GIFT\MDL\Seawoong Lee\20131104_MV8\equal_area_maxkhi080_n8_2th40_130_x-25y-25_-20g.raw)
_FILEVERSION = 3
_SAMPLE =
_+SAMPLE =
_SITE = Korea
_USER = Admin
_GONIOMETER_CODE = 20
; Goniometer : D8 theta/2theta, stage : Unknown
_SAMPLE_CHANGER_CODE = 0
_ATTACHMENTS_CODE = 0
_GONIOMETER_RADIUS = 300
_FIXED_DIVSLIT = 1
_FIXED_SAMPLESLIT = 0
_SOLLER_SLITS = 2
_FIXED_DETSLIT = 0.1
_MONOCHROMATOR = 0
; Incident beam monochromator : None
_SOLLER_SLITS_2 = 2
_THIN_FILM = N
_BETA_FILTER = Y
_FIXED_ANTISLIT = 0.6
_ANALYZER_CODE = 0
; Received beam analyzer : None
_DATEMEASURED = "08-Nov-2013 06:08:49"
_WL_UNIT = A
_WL1 = 1.78897
_WL2 = 1.79285
_WL3 = 1.62079
_WLRATIO = 0.5
_ANODE = Co
_V4_INF_CREATOR = XRDWizard
_V4_INF_CREATOR_VERSION = V2.9.0.22
_V4_INF_WIZARD_VERSION = V2.9.0.22
_V4_INF_WIZARD_ADDINS = V2.9.0.22
_V4_INF_WIZARD_DOCTYPE = XRD
_V4_INF_OSUSER = Postech
_V4_INF_USER = Admin
_V4_INF_SITE = Korea

; Data for range 1
_DRIVE = COUPLED
_STEPTIME = 0.2
_STEPSIZE = 0.1
_STEPMODE = C
_START = 40
_THETA = 20
_2THETA = 40
_KHI = 0
_PHI = 0
_X = -25
_Y = -25
_Z = 0
_DETECTOR = 1
; Detector type : Scintillation counter
_HV = 687
_GAIN = 80
_LLD = 0.69
_ULD = 1.866
_DETECTORSLIT = unkn
_AUX1 = 0
_AUX2 = 0
_AUX3 = 0
_TIMESTARTED = 28
_TEMP_RATE = -1
_TEMP_DELAY = -1
_KV = 35
_MA = 40
_RANGE_WL = 1.78897
_3DPLANE = 0
_V4_ADDITIONALDETECTOR = 0
_V4_D8_DIBNUM = 1
_V4_DETECTORNAME = "Detector 1"
_V4_TTLDETECTOR = None
_V4_DETECTORTYPE = 1
_V4_DETECTORFLAGS = 524545
_V4_DETECTORHV = 687
_V4_DETECTORGAIN = 80
_V4_DETECTORLLD1 = 0.69
_V4_DETECTORWW1 = 1.176
_V4_DETECTORLLD2 = 0
_V4_DETECTORWW2 = 0
_V4_DETECTORPS = 0
_V4_DETECTORDT = 0
_V4_DETECTORPILEUPTIME = 0
_V4_COUNTERS_MASK = 1
_V4_DRIVES_MASK = 0
_V4_ENCODERS_MASK = 0
_2THETACOUNTS = 1
; 2THETA  Cnt1_D1
  40.0000        560
  40.4000        523
  40.8000        489
  41.2000        503
  41.6000        540
  42.0000        535
  42.4000        533
  42.8000        509
  43.2000        514
  43.6000        517
  44.0000        521
  44.4000        518
  44.8000        525
  45.2000        524
  45.6000        574
  46.0000        547
  46.4000        550
  46.8000        531
  47.2000        526
  47.6000        528
  48.0000        540
  48.4000        494
  48.8000        538
  49.2000        560
  49.6000        505
  50.0000        556
  50.4000        546
  50.8000        539
  51.2000        585
  51.6000        768
  52.0000       1180
  52.4000       1220
  52.8000        670
  53.2000        521
  53.6000        530
  54.0000        542
  54.4000        501
  54.8000        517
  55.2000        539
  55.6000        516
  56.0000        507
  56.4000        536
  56.8000        514
  57.2000        512
  57.6000        517
  58.0000        559
  58.4000        482
  58.8000        572
  59.2000        532
  59.6000        525
  60.0000        500
  60.4000        522
  60.8000        551
  61.2000        527
  61.6000        492
  62.0000        540
  62.4000        544
  62.8000        489
  63.2000        490
  63.6000        504
  64.0000        536
  64.4000        562
  64.8000        554
  65.2000        501
  65.6000        535
  66.0000        493
  66.4000        483
  66.8000        501
  67.2000        539
  67.6000        491
  68.0000        545
  68.4000        497
  68.8000        539
  69.2000        468
  69.6000        511
  70.0000        498
  70.4000        479
  70.8000        491
  71.2000        494
  71.6000        513
  72.0000        527
  72.4000        514
  72.8000        481
  73.2000        510
  73.6000        518
  74.0000        490
  74.4000        506
  74.8000        541
  75.2000        514
  75.6000        530
  76.0000        665
  76.4000       1073
  76.8000       1329
  77.2000        998
  77.6000        641
  78.0000        548
  78.4000        595
  78.8000        550
  79.2000        511
  79.6000        497
  80.0000        534
  80.4000        536
  80.8000        551
  81.2000        514
  81.6000        500
  82.0000        518
  82.4000        544
  82.8000        498
  83.2000        524
  83.6000        517
  84.0000        495
  84.4000        519
  84.8000        528
  85.2000        503
  85.6000        526
  86.0000        494
  86.4000        492
  86.8000        523
  87.2000        528
  87.6000        537
  88.0000        532
  88.4000        479
  88.8000        465
  89.2000        503
  89.6000        492
  90.0000        535
  90.4000        490
  90.8000        464
  91.2000        480
  91.6000        492
  92.0000        493
  92.4000        512
  92.8000        542
  93.2000        503
  93.6000        515
  94.0000        542
  94.4000        533
  94.8000        493
  95.2000        523
  95.6000        542
  96.0000        517
  96.4000        533
  96.8000        545
  97.2000        526
  97.6000        520
  98.0000        555
  98.4000        651
  98.8000       1199
  99.2000       1595
  99.6000       1358
 100.0000        792
 100.4000        583
 100.8000        548
 101.2000        521
 101.6000        518
 102.0000        542
 102.4000        506
 102.8000        500
 103.2000        512
 103.6000        523
 104.0000        512
 104.4000        531
 104.8000        498
 105.2000        507
 105.6000        507
 106.0000        499
 106.4000        504
 106.8000        502
 107.2000        499
 107.6000        514
 108.0000        517
 108.4000        520
 108.8000        549
 109.2000        527
 109.6000        548
 110.0000        569
 110.4000        471
 110.8000        495
 111.2000        516
 111.6000        552
 112.0000        537
 112.4000        555
 112.8000        496
 113.2000        503
 113.6000        506
 114.0000        543
 114.4000        542
 114.8000        517
 115.2000        526
 115.6000        497
 116.0000        528
 116.4000        495
 116.8000        518
 117.2000        556
 117.6000        492
 118.0000        516
 118.4000        487
 118.8000        521
 119.2000        509
 119.6000        513
 120.0000        522
 120.4000        492
 120.8000        548
 121.2000        468
 121.6000        519
 122.0000        470
 122.4000        514
 122.8000        528
 123.2000        556
 123.6000        565
 124.0000        539
 124.4000        560
 124.8000        519
 125.2000        516
 125.6000        531
 126.0000        508
 126.4000        518
 126.8000        515
 127.2000        517
 127.6000        542
 128.0000        534
 128.4000        513
 128.8000        553
 129.2000        523
 129.6000        480
 130.0000        513

; Data for range 2
_DRIVE = COUPLED
_STEPTIME = 0.2
_STEPSIZE = 0.1
_STEPMODE = C
_START = 40
_THETA = 20
_2THETA = 40
_KHI = 10.5
_PHI = 60
_X = -25
_Y = -25
_Z = 0
_DETECTOR = 1
; Detector type : Scintillation counter
_HV = 687
_GAIN = 80
_LLD = 0.69
_ULD = 1.866
_DETECTORSLIT = unkn
_AUX1 = 0
_AUX2 = 0
_AUX3 = 0
_TIMESTARTED = 226
_TEMP_RATE = -1
_TEMP_DELAY = -1
_KV = 35
_MA = 40
_RANGE_WL = 1.78897
_3DPLANE = 0
_V4_ADDITIONALDETECTOR = 0
_V4_D8_DIBNUM = 1
_V4_DETECTORNAME = "Detector 1"
_V4_TTLDETECTOR = None
_V4_DETECTORTYPE = 1
_V4_DETECTORFLAGS = 524545
_V4_DETECTORHV = 687
_V4_DETECTORGAIN = 80
_V4_DETECTORLLD1 = 0.69
_V4_DETECTORWW1 = 1.176
_V4_DETECTORLLD2 = 0
_V4_DETECTORWW2 = 0
_V4_DETECTORPS = 0
_V4_DETECTORDT = 0
_V4_DETECTORPILEUPTIME = 0
[...]
  60.8000        231
  61.2000        248
  61.6000        229
  62.0000        249
  62.4000        209
  62.8000        236
  63.2000        240
  63.6000        236
  64.0000        242
  64.4000        236
  64.8000        246
  65.2000        256
  65.6000        255
  66.0000        234
  66.4000        262
  66.8000        272
  67.2000        264
  67.6000        275
  68.0000        219
  68.4000        251
  68.8000        251
  69.2000        268
  69.6000        274
  70.0000        253
  70.4000        253
  70.8000        277
  71.2000        239
  71.6000        270
  72.0000        290
  72.4000        266
  72.8000        269
  73.2000        281
  73.6000        278
  74.0000        276
  74.4000        271
  74.8000        284
  75.2000        291
  75.6000        273
  76.0000        299
  76.4000        294
  76.8000        297
  77.2000        335
  77.6000        312
  78.0000        319
  78.4000        279
  78.8000        277
  79.2000        331
  79.6000        267
  80.0000        289
  80.4000        303
  80.8000        306
  81.2000        298
  81.6000        292
  82.0000        300
  82.4000        323
  82.8000        309
  83.2000        306
  83.6000        329
  84.0000        290
  84.4000        298
  84.8000        274
  85.2000        303
  85.6000        330
  86.0000        342
  86.4000        317
  86.8000        294
  87.2000        298
  87.6000        318
  88.0000        334
  88.4000        307
  88.8000        331
  89.2000        336
  89.6000        326
  90.0000        324
  90.4000        295
  90.8000        327
  91.2000        337
  91.6000        353
  92.0000        371
  92.4000        336
  92.8000        354
  93.2000        331
  93.6000        319
  94.0000        337
  94.4000        370
  94.8000        347
  95.2000        341
  95.6000        343
  96.0000        370
  96.4000        352
  96.8000        371
  97.2000        362
  97.6000        389
  98.0000        449
  98.4000        514
  98.8000        623
  99.2000        592
  99.6000        613
 100.0000        519
 100.4000        461
 100.8000        418
 101.2000        372
 101.6000        383
 102.0000        388
 102.4000        431
 102.8000        410
 103.2000        374
 103.6000        387
 104.0000        403
 104.4000        379
 104.8000        392
 105.2000        383
 105.6000        398
 106.0000        412
 106.4000        375
 106.8000        364
 107.2000        397
 107.6000        438
 108.0000        392
 108.4000        425
 108.8000        386
 109.2000        370
 109.6000        398
 110.0000        397
 110.4000        421
 110.8000        414
 111.2000        415
 111.6000        387
 112.0000        396
 112.4000        426
 112.8000        391
 113.2000        418
 113.6000        400
 114.0000        390
 114.4000        417
 114.8000        436
 115.2000        433
 115.6000        392
 116.0000        411
 116.4000        420
 116.8000        407
 117.2000        420
 117.6000        370
 118.0000        407
 118.4000        430
 118.8000        440
 119.2000        435
 119.6000        472
 120.0000        395
 120.4000        436
 120.8000        451
 121.2000        447
 121.6000        460
 122.0000        465
 122.4000        497
 122.8000        540
 123.2000        563
 123.6000        550
 124.0000        520
 124.4000        496
 124.8000        483
 125.2000        433
 125.6000        426
 126.0000        458
 126.4000        413
 126.8000        448
 127.2000        404
 127.6000        471
 128.0000        417
 128.4000        419
 128.8000        455
 129.2000        404
 129.6000        389
 130.0000        425