Folder: sw/exp_dat/old/exp_2013_11_11 (part 11)

File: 22pct_-30L.uxd
; (content of file C:\DIFFDAT1\GIFT\MDL\Seawoong Lee\20131104_MV8\equal_area_maxkhi080_n8_2th40_130_x25y-25_-30L.raw)
_FILEVERSION = 3
_SAMPLE =
_+SAMPLE =
_SITE = Korea
_USER = Admin
_GONIOMETER_CODE = 20
; Goniometer : D8 theta/2theta, stage : Unknown
_SAMPLE_CHANGER_CODE = 0
_ATTACHMENTS_CODE = 0
_GONIOMETER_RADIUS = 300
_FIXED_DIVSLIT = 1
_FIXED_SAMPLESLIT = 0
_SOLLER_SLITS = 2
_FIXED_DETSLIT = 0.1
_MONOCHROMATOR = 0
; Incident beam monochromator : None
_SOLLER_SLITS_2 = 2
_THIN_FILM = N
_BETA_FILTER = Y
_FIXED_ANTISLIT = 0.6
_ANALYZER_CODE = 0
; Received beam analyzer : None
_DATEMEASURED = "07-Nov-2013 12:41:03"
_WL_UNIT = A
_WL1 = 1.78897
_WL2 = 1.79285
_WL3 = 1.62079
_WLRATIO = 0.5
_ANODE = Co
_V4_INF_CREATOR = XRDWizard
_V4_INF_CREATOR_VERSION = V2.9.0.22
_V4_INF_WIZARD_VERSION = V2.9.0.22
_V4_INF_WIZARD_ADDINS = V2.9.0.22
_V4_INF_WIZARD_DOCTYPE = XRD
_V4_INF_OSUSER = Postech
_V4_INF_USER = Admin
_V4_INF_SITE = Korea

; Data for range 1
_DRIVE = COUPLED
_STEPTIME = 0.2
_STEPSIZE = 0.1
_STEPMODE = C
_START = 40
_THETA = 20
_2THETA = 40
_KHI = 0
_PHI = 0
_X = 25
_Y = -25
_Z = 0
_DETECTOR = 1
; Detector type : Scintillation counter
_HV = 687
_GAIN = 80
_LLD = 0.69
_ULD = 1.866
_DETECTORSLIT = unkn
_AUX1 = 0
_AUX2 = 0
_AUX3 = 0
_TIMESTARTED = 13
_TEMP_RATE = -1
_TEMP_DELAY = -1
_KV = 35
_MA = 40
_RANGE_WL = 1.78897
_3DPLANE = 0
_V4_ADDITIONALDETECTOR = 0
_V4_D8_DIBNUM = 1
_V4_DETECTORNAME = "Detector 1"
_V4_TTLDETECTOR = None
_V4_DETECTORTYPE = 1
_V4_DETECTORFLAGS = 524545
_V4_DETECTORHV = 687
_V4_DETECTORGAIN = 80
_V4_DETECTORLLD1 = 0.69
_V4_DETECTORWW1 = 1.176
_V4_DETECTORLLD2 = 0
_V4_DETECTORWW2 = 0
_V4_DETECTORPS = 0
_V4_DETECTORDT = 0
_V4_DETECTORPILEUPTIME = 0
_V4_COUNTERS_MASK = 1
_V4_DRIVES_MASK = 0
_V4_ENCODERS_MASK = 0
_2THETACOUNTS = 1
; 2THETA  Cnt1_D1
  40.0000        482
  40.4000        468
  40.8000        516
  41.2000        501
  41.6000        502
  42.0000        495
  42.4000        510
  42.8000        499
  43.2000        506
  43.6000        475
  44.0000        464
  44.4000        509
  44.8000        501
  45.2000        503
  45.6000        484
  46.0000        486
  46.4000        586
  46.8000        530
  47.2000        576
  47.6000        544
  48.0000        500
  48.4000        533
  48.8000        543
  49.2000        559
  49.6000        490
  50.0000        505
  50.4000        527
  50.8000        559
  51.2000        590
  51.6000        804
  52.0000       1519
  52.4000       1428
  52.8000        642
  53.2000        534
  53.6000        524
  54.0000        508
  54.4000        551
  54.8000        518
  55.2000        561
  55.6000        518
  56.0000        567
  56.4000        555
  56.8000        514
  57.2000        548
  57.6000        510
  58.0000        529
  58.4000        532
  58.8000        548
  59.2000        540
  59.6000        534
  60.0000        518
  60.4000        513
  60.8000        540
  61.2000        554
  61.6000        518
  62.0000        498
  62.4000        504
  62.8000        479
  63.2000        498
  63.6000        549
  64.0000        509
  64.4000        522
  64.8000        515
  65.2000        462
  65.6000        500
  66.0000        521
  66.4000        520
  66.8000        552
  67.2000        508
  67.6000        537
  68.0000        492
  68.4000        542
  68.8000        519
  69.2000        517
  69.6000        555
  70.0000        541
  70.4000        495
  70.8000        525
  71.2000        549
  71.6000        478
  72.0000        533
  72.4000        532
  72.8000        543
  73.2000        489
  73.6000        502
  74.0000        521
  74.4000        505
  74.8000        530
  75.2000        554
  75.6000        541
  76.0000        558
  76.4000        828
  76.8000       1089
  77.2000       1078
  77.6000        647
  78.0000        601
  78.4000        550
  78.8000        510
  79.2000        514
  79.6000        542
  80.0000        482
  80.4000        477
  80.8000        536
  81.2000        480
  81.6000        549
  82.0000        516
  82.4000        511
  82.8000        502
  83.2000        531
  83.6000        554
  84.0000        544
  84.4000        547
  84.8000        512
  85.2000        522
  85.6000        545
  86.0000        521
  86.4000        546
  86.8000        535
  87.2000        512
  87.6000        495
  88.0000        489
  88.4000        476
  88.8000        544
  89.2000        549
  89.6000        532
  90.0000        518
  90.4000        515
  90.8000        533
  91.2000        522
  91.6000        531
  92.0000        518
  92.4000        527
  92.8000        552
  93.2000        473
  93.6000        492
  94.0000        520
  94.4000        521
  94.8000        513
  95.2000        530
  95.6000        568
  96.0000        499
  96.4000        555
  96.8000        517
  97.2000        571
  97.6000        553
  98.0000        546
  98.4000        619
  98.8000        980
  99.2000       1405
  99.6000       1310
 100.0000        733
 100.4000        567
 100.8000        538
 101.2000        547
 101.6000        582
 102.0000        513
 102.4000        505
 102.8000        520
 103.2000        530
 103.6000        511
 104.0000        470
 104.4000        489
 104.8000        530
 105.2000        512
 105.6000        508
 106.0000        501
 106.4000        493
 106.8000        489
 107.2000        522
 107.6000        507
 108.0000        535
 108.4000        561
 108.8000        534
 109.2000        535
 109.6000        519
 110.0000        581
 110.4000        545
 110.8000        534
 111.2000        489
 111.6000        528
 112.0000        544
 112.4000        500
 112.8000        519
 113.2000        520
 113.6000        507
 114.0000        513
 114.4000        515
 114.8000        508
 115.2000        491
 115.6000        503
 116.0000        532
 116.4000        513
 116.8000        516
 117.2000        496
 117.6000        539
 118.0000        503
 118.4000        520
 118.8000        533
 119.2000        502
 119.6000        501
 120.0000        505
 120.4000        497
 120.8000        538
 121.2000        526
 121.6000        547
 122.0000        510
 122.4000        544
 122.8000        567
 123.2000        585
 123.6000        614
 124.0000        548
 124.4000        484
 124.8000        536
 125.2000        493
 125.6000        526
 126.0000        504
 126.4000        486
 126.8000        549
 127.2000        531
 127.6000        509
 128.0000        520
 128.4000        534
 128.8000        523
 129.2000        484
 129.6000        558
 130.0000        498

; Data for range 2
_DRIVE = COUPLED
_STEPTIME = 0.2
_STEPSIZE = 0.1
_STEPMODE = C
_START = 40
_THETA = 20
_2THETA = 40
_KHI = 10.5
_PHI = 60
_X = 25
_Y = -25
_Z = 0
_DETECTOR = 1
; Detector type : Scintillation counter
_HV = 687
_GAIN = 80
_LLD = 0.69
_ULD = 1.866
_DETECTORSLIT = unkn
_AUX1 = 0
_AUX2 = 0
_AUX3 = 0
_TIMESTARTED = 210
_TEMP_RATE = -1
_TEMP_DELAY = -1
_KV = 35
_MA = 40
_RANGE_WL = 1.78897
_3DPLANE = 0
_V4_ADDITIONALDETECTOR = 0
_V4_D8_DIBNUM = 1
_V4_DETECTORNAME = "Detector 1"
_V4_TTLDETECTOR = None
_V4_DETECTORTYPE = 1
_V4_DETECTORFLAGS = 524545
_V4_DETECTORHV = 687
_V4_DETECTORGAIN = 80
_V4_DETECTORLLD1 = 0.69
_V4_DETECTORWW1 = 1.176
_V4_DETECTORLLD2 = 0
_V4_DETECTORWW2 = 0
_V4_DETECTORPS = 0
_V4_DETECTORDT = 0
_V4_DETECTORPILEUPTIME = 0
_V4_COUNTERS_MASK = 1
[...]
  60.8000        186
  61.2000        187
  61.6000        236
  62.0000        192
  62.4000        241
  62.8000        215
  63.2000        206
  63.6000        231
  64.0000        217
  64.4000        209
  64.8000        209
  65.2000        180
  65.6000        233
  66.0000        221
  66.4000        207
  66.8000        233
  67.2000        211
  67.6000        220
  68.0000        222
  68.4000        229
  68.8000        215
  69.2000        203
  69.6000        225
  70.0000        255
  70.4000        221
  70.8000        274
  71.2000        231
  71.6000        255
  72.0000        227
  72.4000        229
  72.8000        231
  73.2000        228
  73.6000        221
  74.0000        233
  74.4000        239
  74.8000        251
  75.2000        254
  75.6000        267
  76.0000        258
  76.4000        289
  76.8000        296
  77.2000        306
  77.6000        339
  78.0000        286
  78.4000        239
  78.8000        234
  79.2000        266
  79.6000        254
  80.0000        268
  80.4000        245
  80.8000        241
  81.2000        225
  81.6000        229
  82.0000        240
  82.4000        253
  82.8000        255
  83.2000        260
  83.6000        261
  84.0000        244
  84.4000        263
  84.8000        279
  85.2000        278
  85.6000        292
  86.0000        290
  86.4000        287
  86.8000        288
  87.2000        299
  87.6000        269
  88.0000        262
  88.4000        294
  88.8000        276
  89.2000        245
  89.6000        278
  90.0000        248
  90.4000        306
  90.8000        303
  91.2000        259
  91.6000        271
  92.0000        300
  92.4000        297
  92.8000        286
  93.2000        318
  93.6000        285
  94.0000        298
  94.4000        288
  94.8000        276
  95.2000        283
  95.6000        325
  96.0000        305
  96.4000        294
  96.8000        333
  97.2000        306
  97.6000        312
  98.0000        325
  98.4000        380
  98.8000        391
  99.2000        459
  99.6000        469
 100.0000        394
 100.4000        323
 100.8000        306
 101.2000        313
 101.6000        311
 102.0000        335
 102.4000        316
 102.8000        317
 103.2000        330
 103.6000        344
 104.0000        304
 104.4000        320
 104.8000        326
 105.2000        322
 105.6000        330
 106.0000        342
 106.4000        349
 106.8000        356
 107.2000        348
 107.6000        360
 108.0000        319
 108.4000        324
 108.8000        325
 109.2000        357
 109.6000        367
 110.0000        322
 110.4000        328
 110.8000        341
 111.2000        316
 111.6000        345
 112.0000        353
 112.4000        330
 112.8000        336
 113.2000        366
 113.6000        367
 114.0000        326
 114.4000        342
 114.8000        371
 115.2000        356
 115.6000        355
 116.0000        347
 116.4000        391
 116.8000        380
 117.2000        346
 117.6000        346
 118.0000        370
 118.4000        358
 118.8000        323
 119.2000        373
 119.6000        343
 120.0000        350
 120.4000        357
 120.8000        366
 121.2000        326
 121.6000        365
 122.0000        391
 122.4000        427
 122.8000        451
 123.2000        407
 123.6000        403
 124.0000        423
 124.4000        387
 124.8000        370
 125.2000        371
 125.6000        363
 126.0000        355
 126.4000        354
 126.8000        365
 127.2000        373
 127.6000        384
 128.0000        338
 128.4000        347
 128.8000        359
 129.2000        356
 129.6000        363
 130.0000        362

File: 23pct_-30G.uxd
; (content of file C:\DIFFDAT1\GIFT\MDL\Seawoong Lee\20131104_MV8\equal_area_maxkhi080_n8_2th40_130_x00y25_-30g.raw)
_FILEVERSION = 3
_SAMPLE =
_+SAMPLE =
_SITE = Korea
_USER = Admin
_GONIOMETER_CODE = 20
; Goniometer : D8 theta/2theta, stage : Unknown
_SAMPLE_CHANGER_CODE = 0
_ATTACHMENTS_CODE = 0
_GONIOMETER_RADIUS = 300
_FIXED_DIVSLIT = 1
_FIXED_SAMPLESLIT = 0
_SOLLER_SLITS = 2
_FIXED_DETSLIT = 0.1
_MONOCHROMATOR = 0
; Incident beam monochromator : None
_SOLLER_SLITS_2 = 2
_THIN_FILM = N
_BETA_FILTER = Y
_FIXED_ANTISLIT = 0.6
_ANALYZER_CODE = 0
; Received beam analyzer : None
_DATEMEASURED = "08-Nov-2013 03:14:11"
_WL_UNIT = A
_WL1 = 1.78897
_WL2 = 1.79285
_WL3 = 1.62079
_WLRATIO = 0.5
_ANODE = Co
_V4_INF_CREATOR = XRDWizard
_V4_INF_CREATOR_VERSION = V2.9.0.22
_V4_INF_WIZARD_VERSION = V2.9.0.22
_V4_INF_WIZARD_ADDINS = V2.9.0.22
_V4_INF_WIZARD_DOCTYPE = XRD
_V4_INF_OSUSER = Postech
_V4_INF_USER = Admin
_V4_INF_SITE = Korea

; Data for range 1
_DRIVE = COUPLED
_STEPTIME = 0.2
_STEPSIZE = 0.1
_STEPMODE = C
_START = 40
_THETA = 20
_2THETA = 40
_KHI = 0
_PHI = 0
_X = 0
_Y = 25
_Z = 0
_DETECTOR = 1
; Detector type : Scintillation counter
_HV = 687
_GAIN = 80
_LLD = 0.69
_ULD = 1.866
_DETECTORSLIT = unkn
_AUX1 = 0
_AUX2 = 0
_AUX3 = 0
_TIMESTARTED = 28
_TEMP_RATE = -1
_TEMP_DELAY = -1
_KV = 35
_MA = 40
_RANGE_WL = 1.78897
_3DPLANE = 0
_V4_ADDITIONALDETECTOR = 0
_V4_D8_DIBNUM = 1
_V4_DETECTORNAME = "Detector 1"
_V4_TTLDETECTOR = None
_V4_DETECTORTYPE = 1
_V4_DETECTORFLAGS = 524545
_V4_DETECTORHV = 687
_V4_DETECTORGAIN = 80
_V4_DETECTORLLD1 = 0.69
_V4_DETECTORWW1 = 1.176
_V4_DETECTORLLD2 = 0
_V4_DETECTORWW2 = 0
_V4_DETECTORPS = 0
_V4_DETECTORDT = 0
_V4_DETECTORPILEUPTIME = 0
_V4_COUNTERS_MASK = 1
_V4_DRIVES_MASK = 0
_V4_ENCODERS_MASK = 0
_2THETACOUNTS = 1
; 2THETA  Cnt1_D1
  40.0000        454
  40.4000        401
  40.8000        443
  41.2000        481
  41.6000        443
  42.0000        432
  42.4000        496
  42.8000        462
  43.2000        453
  43.6000        494
  44.0000        455
  44.4000        490
  44.8000        458
  45.2000        498
  45.6000        464
  46.0000        514
  46.4000        477
  46.8000        463
  47.2000        463
  47.6000        452
  48.0000        494
  48.4000        513
  48.8000        509
  49.2000        509
  49.6000        502
  50.0000        477
  50.4000        518
  50.8000        507
  51.2000        483
  51.6000        661
  52.0000       1083
  52.4000       1049
  52.8000        645
  53.2000        545
  53.6000        499
  54.0000        520
  54.4000        531
  54.8000        445
  55.2000        520
  55.6000        503
  56.0000        532
  56.4000        496
  56.8000        546
  57.2000        505
  57.6000        489
  58.0000        532
  58.4000        473
  58.8000        536
  59.2000        505
  59.6000        520
  60.0000        463
  60.4000        511
  60.8000        531
  61.2000        483
  61.6000        492
  62.0000        518
  62.4000        497
  62.8000        470
  63.2000        521
  63.6000        495
  64.0000        521
  64.4000        510
  64.8000        519
  65.2000        523
  65.6000        503
  66.0000        503
  66.4000        471
  66.8000        510
  67.2000        525
  67.6000        508
  68.0000        508
  68.4000        482
  68.8000        518
  69.2000        497
  69.6000        525
  70.0000        486
  70.4000        492
  70.8000        512
  71.2000        464
  71.6000        480
  72.0000        498
  72.4000        517
  72.8000        524
  73.2000        522
  73.6000        511
  74.0000        499
  74.4000        484
  74.8000        545
  75.2000        512
  75.6000        550
  76.0000        680
  76.4000       1048
  76.8000       1298
  77.2000       1017
  77.6000        650
  78.0000        541
  78.4000        511
  78.8000        492
  79.2000        495
  79.6000        550
  80.0000        476
  80.4000        509
  80.8000        468
  81.2000        531
  81.6000        499
  82.0000        456
  82.4000        541
  82.8000        542
  83.2000        511
  83.6000        507
  84.0000        490
  84.4000        496
  84.8000        493
  85.2000        485
  85.6000        562
  86.0000        523
  86.4000        485
  86.8000        500
  87.2000        477
  87.6000        488
  88.0000        491
  88.4000        504
  88.8000        500
  89.2000        496
  89.6000        521
  90.0000        510
  90.4000        502
  90.8000        509
  91.2000        489
  91.6000        510
  92.0000        522
  92.4000        491
  92.8000        478
  93.2000        523
  93.6000        545
  94.0000        512
  94.4000        473
  94.8000        511
  95.2000        529
  95.6000        510
  96.0000        524
  96.4000        463
  96.8000        541
  97.2000        505
  97.6000        520
  98.0000        598
  98.4000        718
  98.8000       1216
  99.2000       1604
  99.6000       1329
 100.0000        790
 100.4000        652
 100.8000        549
 101.2000        528
 101.6000        506
 102.0000        543
 102.4000        508
 102.8000        507
 103.2000        503
 103.6000        542
 104.0000        531
 104.4000        508
 104.8000        499
 105.2000        505
 105.6000        502
 106.0000        511
 106.4000        556
 106.8000        507
 107.2000        511
 107.6000        525
 108.0000        538
 108.4000        518
 108.8000        487
 109.2000        507
 109.6000        521
 110.0000        475
 110.4000        473
 110.8000        550
 111.2000        498
 111.6000        504
 112.0000        535
 112.4000        483
 112.8000        569
 113.2000        503
 113.6000        494
 114.0000        464
 114.4000        516
 114.8000        515
 115.2000        474
 115.6000        499
 116.0000        499
 116.4000        491
 116.8000        490
 117.2000        536
 117.6000        532
 118.0000        539
 118.4000        517
 118.8000        481
 119.2000        503
 119.6000        526
 120.0000        486
 120.4000        517
 120.8000        515
 121.2000        514
 121.6000        480
 122.0000        560
 122.4000        546
 122.8000        519
 123.2000        536
 123.6000        574
 124.0000        512
 124.4000        533
 124.8000        517
 125.2000        501
 125.6000        466
 126.0000        532
 126.4000        503
 126.8000        559
 127.2000        527
 127.6000        497
 128.0000        444
 128.4000        486
 128.8000        540
 129.2000        489
 129.6000        525
 130.0000        471

; Data for range 2
_DRIVE = COUPLED
_STEPTIME = 0.2
_STEPSIZE = 0.1
_STEPMODE = C
_START = 40
_THETA = 20
_2THETA = 40
_KHI = 10.5
_PHI = 60
_X = 0
_Y = 25
_Z = 0
_DETECTOR = 1
; Detector type : Scintillation counter
_HV = 687
_GAIN = 80
_LLD = 0.69
_ULD = 1.866
_DETECTORSLIT = unkn
_AUX1 = 0
_AUX2 = 0
_AUX3 = 0
_TIMESTARTED = 225
_TEMP_RATE = -1
_TEMP_DELAY = -1
_KV = 35
_MA = 40
_RANGE_WL = 1.78897
_3DPLANE = 0
_V4_ADDITIONALDETECTOR = 0
_V4_D8_DIBNUM = 1
_V4_DETECTORNAME = "Detector 1"
_V4_TTLDETECTOR = None
_V4_DETECTORTYPE = 1
_V4_DETECTORFLAGS = 524545
_V4_DETECTORHV = 687
_V4_DETECTORGAIN = 80
_V4_DETECTORLLD1 = 0.69
_V4_DETECTORWW1 = 1.176
_V4_DETECTORLLD2 = 0
_V4_DETECTORWW2 = 0
_V4_DETECTORPS = 0
_V4_DETECTORDT = 0
_V4_DETECTORPILEUPTIME = 0
_V4_COUNTERS_MASK = 1
[...]
  60.8000        221
  61.2000        223
  61.6000        204
  62.0000        191
  62.4000        190
  62.8000        201
  63.2000        215
  63.6000        199
  64.0000        224
  64.4000        209
  64.8000        185
  65.2000        206
  65.6000        217
  66.0000        199
  66.4000        195
  66.8000        192
  67.2000        183
  67.6000        229
  68.0000        193
  68.4000        215
  68.8000        199
  69.2000        231
  69.6000        234
  70.0000        226
  70.4000        236
  70.8000        228
  71.2000        230
  71.6000        213
  72.0000        213
  72.4000        215
  72.8000        211
  73.2000        237
  73.6000        233
  74.0000        217
  74.4000        250
  74.8000        220
  75.2000        245
  75.6000        232
  76.0000        221
  76.4000        238
  76.8000        280
  77.2000        274
  77.6000        282
  78.0000        299
  78.4000        218
  78.8000        237
  79.2000        246
  79.6000        231
  80.0000        215
  80.4000        234
  80.8000        219
  81.2000        277
  81.6000        226
  82.0000        236
  82.4000        258
  82.8000        290
  83.2000        249
  83.6000        228
  84.0000        281
  84.4000        235
  84.8000        234
  85.2000        265
  85.6000        215
  86.0000        265
  86.4000        276
  86.8000        272
  87.2000        248
  87.6000        245
  88.0000        252
  88.4000        284
  88.8000        272
  89.2000        276
  89.6000        262
  90.0000        261
  90.4000        229
  90.8000        288
  91.2000        259
  91.6000        273
  92.0000        267
  92.4000        293
  92.8000        277
  93.2000        310
  93.6000        256
  94.0000        313
  94.4000        270
  94.8000        306
  95.2000        290
  95.6000        303
  96.0000        266
  96.4000        278
  96.8000        308
  97.2000        270
  97.6000        324
  98.0000        342
  98.4000        348
  98.8000        523
  99.2000        565
  99.6000        516
 100.0000        489
 100.4000        407
 100.8000        323
 101.2000        287
 101.6000        319
 102.0000        311
 102.4000        297
 102.8000        294
 103.2000        313
 103.6000        304
 104.0000        308
 104.4000        315
 104.8000        348
 105.2000        360
 105.6000        311
 106.0000        318
 106.4000        311
 106.8000        327
 107.2000        338
 107.6000        314
 108.0000        333
 108.4000        339
 108.8000        370
 109.2000        349
 109.6000        335
 110.0000        357
 110.4000        335
 110.8000        352
 111.2000        343
 111.6000        326
 112.0000        360
 112.4000        374
 112.8000        372
 113.2000        347
 113.6000        398
 114.0000        350
 114.4000        388
 114.8000        352
 115.2000        341
 115.6000        383
 116.0000        322
 116.4000        369
 116.8000        405
 117.2000        393
 117.6000        405
 118.0000        349
 118.4000        360
 118.8000        396
 119.2000        354
 119.6000        418
 120.0000        415
 120.4000        408
 120.8000        396
 121.2000        379
 121.6000        429
 122.0000        449
 122.4000        457
 122.8000        515
 123.2000        545
 123.6000        549
 124.0000        493
 124.4000        441
 124.8000        445
 125.2000        407
 125.6000        384
 126.0000        382
 126.4000        432
 126.8000        404
 127.2000        408
 127.6000        392
 128.0000        421
 128.4000        418
 128.8000        409
 129.2000        422
 129.6000        408
 130.0000        440