Folder: sw/exp_dat/old/exp_2013_11_11 (part 8)

File: 16pct_00L.uxd
; (content of file C:\DIFFDAT1\GIFT\MDL\Seawoong Lee\20131104_MV8\equal_area_maxkhi080_n8_2th40_130_x00y00_0L.raw)
_FILEVERSION = 3
_SAMPLE =
_+SAMPLE =
_SITE = Korea
_USER = Admin
_GONIOMETER_CODE = 20
; Goniometer : D8 theta/2theta, stage : Unknown
_SAMPLE_CHANGER_CODE = 0
_ATTACHMENTS_CODE = 0
_GONIOMETER_RADIUS = 300
_FIXED_DIVSLIT = 1
_FIXED_SAMPLESLIT = 0
_SOLLER_SLITS = 2
_FIXED_DETSLIT = 0.1
_MONOCHROMATOR = 0
; Incident beam monochromator : None
_SOLLER_SLITS_2 = 2
_THIN_FILM = N
_BETA_FILTER = Y
_FIXED_ANTISLIT = 0.6
_ANALYZER_CODE = 0
; Received beam analyzer : None
_DATEMEASURED = "07-Nov-2013 00:55:51"
_WL_UNIT = A
_WL1 = 1.78897
_WL2 = 1.79285
_WL3 = 1.62079
_WLRATIO = 0.5
_ANODE = Co
_V4_INF_CREATOR = XRDWizard
_V4_INF_CREATOR_VERSION = V2.9.0.22
_V4_INF_WIZARD_VERSION = V2.9.0.22
_V4_INF_WIZARD_ADDINS = V2.9.0.22
_V4_INF_WIZARD_DOCTYPE = XRD
_V4_INF_OSUSER = Postech
_V4_INF_USER = Admin
_V4_INF_SITE = Korea

; Data for range 1
_DRIVE = COUPLED
_STEPTIME = 0.2
_STEPSIZE = 0.1
_STEPMODE = C
_START = 40
_THETA = 20
_2THETA = 40
_KHI = 0
_PHI = 0
_X = 0
_Y = 0
_Z = 0
_DETECTOR = 1
; Detector type : Scintillation counter
_HV = 687
_GAIN = 80
_LLD = 0.69
_ULD = 1.866
_DETECTORSLIT = unkn
_AUX1 = 0
_AUX2 = 0
_AUX3 = 0
_TIMESTARTED = 28
_TEMP_RATE = -1
_TEMP_DELAY = -1
_KV = 35
_MA = 40
_RANGE_WL = 1.78897
_3DPLANE = 0
_V4_ADDITIONALDETECTOR = 0
_V4_D8_DIBNUM = 1
_V4_DETECTORNAME = "Detector 1"
_V4_TTLDETECTOR = None
_V4_DETECTORTYPE = 1
_V4_DETECTORFLAGS = 524545
_V4_DETECTORHV = 687
_V4_DETECTORGAIN = 80
_V4_DETECTORLLD1 = 0.69
_V4_DETECTORWW1 = 1.176
_V4_DETECTORLLD2 = 0
_V4_DETECTORWW2 = 0
_V4_DETECTORPS = 0
_V4_DETECTORDT = 0
_V4_DETECTORPILEUPTIME = 0
_V4_COUNTERS_MASK = 1
_V4_DRIVES_MASK = 0
_V4_ENCODERS_MASK = 0
_2THETACOUNTS = 1
; 2THETA  Cnt1_D1
  40.0000        471
  40.4000        495
  40.8000        419
  41.2000        449
  41.6000        441
  42.0000        470
  42.4000        474
  42.8000        434
  43.2000        487
  43.6000        477
  44.0000        478
  44.4000        505
  44.8000        502
  45.2000        471
  45.6000        464
  46.0000        490
  46.4000        489
  46.8000        479
  47.2000        478
  47.6000        467
  48.0000        497
  48.4000        501
  48.8000        472
  49.2000        492
  49.6000        484
  50.0000        533
  50.4000        487
  50.8000        525
  51.2000        580
  51.6000        663
  52.0000       1263
  52.4000       1113
  52.8000        578
  53.2000        528
  53.6000        518
  54.0000        507
  54.4000        508
  54.8000        533
  55.2000        507
  55.6000        553
  56.0000        517
  56.4000        517
  56.8000        502
  57.2000        536
  57.6000        513
  58.0000        499
  58.4000        538
  58.8000        512
  59.2000        543
  59.6000        553
  60.0000        476
  60.4000        472
  60.8000        539
  61.2000        534
  61.6000        520
  62.0000        493
  62.4000        513
  62.8000        526
  63.2000        563
  63.6000        495
  64.0000        492
  64.4000        519
  64.8000        511
  65.2000        486
  65.6000        523
  66.0000        542
  66.4000        480
  66.8000        485
  67.2000        515
  67.6000        518
  68.0000        510
  68.4000        459
  68.8000        534
  69.2000        458
  69.6000        468
  70.0000        534
  70.4000        523
  70.8000        485
  71.2000        558
  71.6000        492
  72.0000        519
  72.4000        509
  72.8000        482
  73.2000        502
  73.6000        515
  74.0000        534
  74.4000        547
  74.8000        511
  75.2000        505
  75.6000        531
  76.0000        537
  76.4000        734
  76.8000        974
  77.2000        861
  77.6000        634
  78.0000        582
  78.4000        555
  78.8000        545
  79.2000        532
  79.6000        524
  80.0000        505
  80.4000        524
  80.8000        523
  81.2000        489
  81.6000        477
  82.0000        529
  82.4000        523
  82.8000        541
  83.2000        542
  83.6000        553
  84.0000        522
  84.4000        511
  84.8000        511
  85.2000        498
  85.6000        528
  86.0000        488
  86.4000        514
  86.8000        540
  87.2000        487
  87.6000        510
  88.0000        534
  88.4000        502
  88.8000        566
  89.2000        554
  89.6000        543
  90.0000        576
  90.4000        546
  90.8000        541
  91.2000        525
  91.6000        547
  92.0000        512
  92.4000        465
  92.8000        535
  93.2000        481
  93.6000        490
  94.0000        555
  94.4000        523
  94.8000        524
  95.2000        539
  95.6000        549
  96.0000        536
  96.4000        520
  96.8000        540
  97.2000        522
  97.6000        530
  98.0000        610
  98.4000        627
  98.8000        973
  99.2000       1505
  99.6000       1381
 100.0000        777
 100.4000        589
 100.8000        556
 101.2000        541
 101.6000        511
 102.0000        479
 102.4000        503
 102.8000        519
 103.2000        507
 103.6000        553
 104.0000        522
 104.4000        535
 104.8000        475
 105.2000        510
 105.6000        481
 106.0000        507
 106.4000        503
 106.8000        553
 107.2000        516
 107.6000        505
 108.0000        565
 108.4000        499
 108.8000        540
 109.2000        503
 109.6000        528
 110.0000        510
 110.4000        521
 110.8000        509
 111.2000        589
 111.6000        554
 112.0000        516
 112.4000        542
 112.8000        526
 113.2000        504
 113.6000        514
 114.0000        538
 114.4000        533
 114.8000        549
 115.2000        487
 115.6000        537
 116.0000        512
 116.4000        518
 116.8000        462
 117.2000        558
 117.6000        496
 118.0000        569
 118.4000        476
 118.8000        514
 119.2000        490
 119.6000        491
 120.0000        514
 120.4000        522
 120.8000        502
 121.2000        538
 121.6000        523
 122.0000        506
 122.4000        554
 122.8000        549
 123.2000        584
 123.6000        586
 124.0000        554
 124.4000        524
 124.8000        519
 125.2000        473
 125.6000        514
 126.0000        530
 126.4000        501
 126.8000        490
 127.2000        483
 127.6000        508
 128.0000        522
 128.4000        502
 128.8000        513
 129.2000        516
 129.6000        523
 130.0000        549

; Data for range 2
_DRIVE = COUPLED
_STEPTIME = 0.2
_STEPSIZE = 0.1
_STEPMODE = C
_START = 40
_THETA = 20
_2THETA = 40
_KHI = 10.5
_PHI = 60
_X = 0
_Y = 0
_Z = 0
_DETECTOR = 1
; Detector type : Scintillation counter
_HV = 687
_GAIN = 80
_LLD = 0.69
_ULD = 1.866
_DETECTORSLIT = unkn
_AUX1 = 0
_AUX2 = 0
_AUX3 = 0
_TIMESTARTED = 225
_TEMP_RATE = -1
_TEMP_DELAY = -1
_KV = 35
_MA = 40
_RANGE_WL = 1.78897
_3DPLANE = 0
_V4_ADDITIONALDETECTOR = 0
_V4_D8_DIBNUM = 1
_V4_DETECTORNAME = "Detector 1"
_V4_TTLDETECTOR = None
_V4_DETECTORTYPE = 1
_V4_DETECTORFLAGS = 524545
_V4_DETECTORHV = 687
_V4_DETECTORGAIN = 80
_V4_DETECTORLLD1 = 0.69
_V4_DETECTORWW1 = 1.176
_V4_DETECTORLLD2 = 0
_V4_DETECTORWW2 = 0
_V4_DETECTORPS = 0
_V4_DETECTORDT = 0
_V4_DETECTORPILEUPTIME = 0
_V4_COUNTERS_MASK = 1
[...]
  60.8000        218
  61.2000        189
  61.6000        195
  62.0000        214
  62.4000        211
  62.8000        213
  63.2000        217
  63.6000        226
  64.0000        203
  64.4000        219
  64.8000        216
  65.2000        217
  65.6000        229
  66.0000        240
  66.4000        222
  66.8000        240
  67.2000        232
  67.6000        231
  68.0000        232
  68.4000        226
  68.8000        211
  69.2000        246
  69.6000        229
  70.0000        222
  70.4000        236
  70.8000        221
  71.2000        248
  71.6000        218
  72.0000        229
  72.4000        231
  72.8000        240
  73.2000        251
  73.6000        233
  74.0000        233
  74.4000        236
  74.8000        232
  75.2000        260
  75.6000        266
  76.0000        255
  76.4000        269
  76.8000        312
  77.2000        256
  77.6000        245
  78.0000        236
  78.4000        250
  78.8000        256
  79.2000        258
  79.6000        269
  80.0000        263
  80.4000        242
  80.8000        249
  81.2000        230
  81.6000        247
  82.0000        241
  82.4000        216
  82.8000        279
  83.2000        265
  83.6000        239
  84.0000        266
  84.4000        278
  84.8000        284
  85.2000        249
  85.6000        260
  86.0000        262
  86.4000        221
  86.8000        257
  87.2000        280
  87.6000        238
  88.0000        289
  88.4000        253
  88.8000        272
  89.2000        296
  89.6000        266
  90.0000        282
  90.4000        275
  90.8000        264
  91.2000        291
  91.6000        253
  92.0000        269
  92.4000        264
  92.8000        252
  93.2000        287
  93.6000        269
  94.0000        277
  94.4000        292
  94.8000        296
  95.2000        280
  95.6000        281
  96.0000        295
  96.4000        275
  96.8000        274
  97.2000        302
  97.6000        301
  98.0000        277
  98.4000        339
  98.8000        436
  99.2000        487
  99.6000        461
 100.0000        427
 100.4000        336
 100.8000        316
 101.2000        336
 101.6000        316
 102.0000        314
 102.4000        293
 102.8000        285
 103.2000        314
 103.6000        288
 104.0000        336
 104.4000        330
 104.8000        301
 105.2000        279
 105.6000        310
 106.0000        324
 106.4000        345
 106.8000        325
 107.2000        311
 107.6000        268
 108.0000        308
 108.4000        323
 108.8000        318
 109.2000        336
 109.6000        299
 110.0000        338
 110.4000        314
 110.8000        348
 111.2000        335
 111.6000        357
 112.0000        327
 112.4000        329
 112.8000        356
 113.2000        282
 113.6000        332
 114.0000        321
 114.4000        380
 114.8000        330
 115.2000        353
 115.6000        372
 116.0000        298
 116.4000        345
 116.8000        341
 117.2000        380
 117.6000        378
 118.0000        332
 118.4000        368
 118.8000        350
 119.2000        361
 119.6000        360
 120.0000        370
 120.4000        384
 120.8000        346
 121.2000        384
 121.6000        366
 122.0000        399
 122.4000        433
 122.8000        464
 123.2000        515
 123.6000        472
 124.0000        458
 124.4000        399
 124.8000        394
 125.2000        403
 125.6000        396
 126.0000        419
 126.4000        355
 126.8000        338
 127.2000        356
 127.6000        377
 128.0000        378
 128.4000        378
 128.8000        357
 129.2000        363
 129.6000        373
 130.0000        363

File: 17pct_00G.uxd
; (content of file C:\DIFFDAT1\GIFT\MDL\Seawoong Lee\20131104_MV8\equal_area_maxkhi080_n8_2th40_130_x25y-25_0g.raw)
_FILEVERSION = 3
_SAMPLE =
_+SAMPLE =
_SITE = Korea
_USER = Admin
_GONIOMETER_CODE = 20
; Goniometer : D8 theta/2theta, stage : Unknown
_SAMPLE_CHANGER_CODE = 0
_ATTACHMENTS_CODE = 0
_GONIOMETER_RADIUS = 300
_FIXED_DIVSLIT = 1
_FIXED_SAMPLESLIT = 0
_SOLLER_SLITS = 2
_FIXED_DETSLIT = 0.1
_MONOCHROMATOR = 0
; Incident beam monochromator : None
_SOLLER_SLITS_2 = 2
_THIN_FILM = N
_BETA_FILTER = Y
_FIXED_ANTISLIT = 0.6
_ANALYZER_CODE = 0
; Received beam analyzer : None
_DATEMEASURED = "08-Nov-2013 12:53:55"
_WL_UNIT = A
_WL1 = 1.78897
_WL2 = 1.79285
_WL3 = 1.62079
_WLRATIO = 0.5
_ANODE = Co
_V4_INF_CREATOR = XRDWizard
_V4_INF_CREATOR_VERSION = V2.9.0.22
_V4_INF_WIZARD_VERSION = V2.9.0.22
_V4_INF_WIZARD_ADDINS = V2.9.0.22
_V4_INF_WIZARD_DOCTYPE = XRD
_V4_INF_OSUSER = Postech
_V4_INF_USER = Admin
_V4_INF_SITE = Korea

; Data for range 1
_DRIVE = COUPLED
_STEPTIME = 0.2
_STEPSIZE = 0.1
_STEPMODE = C
_START = 40
_THETA = 20
_2THETA = 40
_KHI = 0
_PHI = 0
_X = 25
_Y = -25
_Z = 0
_DETECTOR = 1
; Detector type : Scintillation counter
_HV = 687
_GAIN = 80
_LLD = 0.69
_ULD = 1.866
_DETECTORSLIT = unkn
_AUX1 = 0
_AUX2 = 0
_AUX3 = 0
_TIMESTARTED = 13
_TEMP_RATE = -1
_TEMP_DELAY = -1
_KV = 35
_MA = 40
_RANGE_WL = 1.78897
_3DPLANE = 0
_V4_ADDITIONALDETECTOR = 0
_V4_D8_DIBNUM = 1
_V4_DETECTORNAME = "Detector 1"
_V4_TTLDETECTOR = None
_V4_DETECTORTYPE = 1
_V4_DETECTORFLAGS = 524545
_V4_DETECTORHV = 687
_V4_DETECTORGAIN = 80
_V4_DETECTORLLD1 = 0.69
_V4_DETECTORWW1 = 1.176
_V4_DETECTORLLD2 = 0
_V4_DETECTORWW2 = 0
_V4_DETECTORPS = 0
_V4_DETECTORDT = 0
_V4_DETECTORPILEUPTIME = 0
_V4_COUNTERS_MASK = 1
_V4_DRIVES_MASK = 0
_V4_ENCODERS_MASK = 0
_2THETACOUNTS = 1
; 2THETA  Cnt1_D1
  40.0000        500
  40.4000        494
  40.8000        521
  41.2000        515
  41.6000        500
  42.0000        509
  42.4000        503
  42.8000        533
  43.2000        493
  43.6000        517
  44.0000        543
  44.4000        496
  44.8000        510
  45.2000        471
  45.6000        540
  46.0000        484
  46.4000        551
  46.8000        504
  47.2000        513
  47.6000        475
  48.0000        522
  48.4000        553
  48.8000        494
  49.2000        536
  49.6000        558
  50.0000        489
  50.4000        512
  50.8000        534
  51.2000        545
  51.6000        739
  52.0000       1158
  52.4000       1128
  52.8000        629
  53.2000        577
  53.6000        490
  54.0000        531
  54.4000        537
  54.8000        523
  55.2000        494
  55.6000        522
  56.0000        548
  56.4000        473
  56.8000        514
  57.2000        521
  57.6000        494
  58.0000        485
  58.4000        485
  58.8000        513
  59.2000        483
  59.6000        530
  60.0000        537
  60.4000        541
  60.8000        492
  61.2000        483
  61.6000        517
  62.0000        516
  62.4000        505
  62.8000        509
  63.2000        513
  63.6000        514
  64.0000        478
  64.4000        534
  64.8000        455
  65.2000        489
  65.6000        489
  66.0000        500
  66.4000        545
  66.8000        477
  67.2000        501
  67.6000        494
  68.0000        505
  68.4000        513
  68.8000        516
  69.2000        487
  69.6000        518
  70.0000        561
  70.4000        528
  70.8000        528
  71.2000        450
  71.6000        535
  72.0000        516
  72.4000        508
  72.8000        466
  73.2000        463
  73.6000        490
  74.0000        517
  74.4000        536
  74.8000        516
  75.2000        518
  75.6000        510
  76.0000        676
  76.4000       1020
  76.8000       1340
  77.2000        964
  77.6000        651
  78.0000        542
  78.4000        522
  78.8000        498
  79.2000        562
  79.6000        507
  80.0000        507
  80.4000        485
  80.8000        477
  81.2000        496
  81.6000        487
  82.0000        534
  82.4000        525
  82.8000        560
  83.2000        522
  83.6000        478
  84.0000        514
  84.4000        490
  84.8000        536
  85.2000        494
  85.6000        524
  86.0000        562
  86.4000        480
  86.8000        496
  87.2000        502
  87.6000        518
  88.0000        503
  88.4000        476
  88.8000        493
  89.2000        514
  89.6000        487
  90.0000        520
  90.4000        512
  90.8000        526
  91.2000        516
  91.6000        481
  92.0000        525
  92.4000        512
  92.8000        557
  93.2000        511
  93.6000        539
  94.0000        503
  94.4000        459
  94.8000        493
  95.2000        566
  95.6000        520
  96.0000        508
  96.4000        516
  96.8000        494
  97.2000        494
  97.6000        559
  98.0000        557
  98.4000        725
  98.8000       1297
  99.2000       1649
  99.6000       1307
 100.0000        750
 100.4000        624
 100.8000        557
 101.2000        504
 101.6000        554
 102.0000        518
 102.4000        505
 102.8000        519
 103.2000        564
 103.6000        507
 104.0000        529
 104.4000        521
 104.8000        523
 105.2000        489
 105.6000        545
 106.0000        495
 106.4000        506
 106.8000        494
 107.2000        495
 107.6000        537
 108.0000        529
 108.4000        488
 108.8000        544
 109.2000        503
 109.6000        524
 110.0000        528
 110.4000        531
 110.8000        473
 111.2000        545
 111.6000        552
 112.0000        509
 112.4000        479
 112.8000        556
 113.2000        483
 113.6000        518
 114.0000        516
 114.4000        486
 114.8000        515
 115.2000        504
 115.6000        483
 116.0000        480
 116.4000        463
 116.8000        557
 117.2000        526
 117.6000        501
 118.0000        516
 118.4000        520
 118.8000        518
 119.2000        487
 119.6000        559
 120.0000        520
 120.4000        524
 120.8000        517
 121.2000        504
 121.6000        472
 122.0000        486
 122.4000        512
 122.8000        568
 123.2000        554
 123.6000        574
 124.0000        529
 124.4000        530
 124.8000        466
 125.2000        496
 125.6000        526
 126.0000        478
 126.4000        517
 126.8000        524
 127.2000        475
 127.6000        550
 128.0000        552
 128.4000        522
 128.8000        503
 129.2000        504
 129.6000        538
 130.0000        520

; Data for range 2
_DRIVE = COUPLED
_STEPTIME = 0.2
_STEPSIZE = 0.1
_STEPMODE = C
_START = 40
_THETA = 20
_2THETA = 40
_KHI = 10.5
_PHI = 60
_X = 25
_Y = -25
_Z = 0
_DETECTOR = 1
; Detector type : Scintillation counter
_HV = 687
_GAIN = 80
_LLD = 0.69
_ULD = 1.866
_DETECTORSLIT = unkn
_AUX1 = 0
_AUX2 = 0
_AUX3 = 0
_TIMESTARTED = 210
_TEMP_RATE = -1
_TEMP_DELAY = -1
_KV = 35
_MA = 40
_RANGE_WL = 1.78897
_3DPLANE = 0
_V4_ADDITIONALDETECTOR = 0
_V4_D8_DIBNUM = 1
_V4_DETECTORNAME = "Detector 1"
_V4_TTLDETECTOR = None
_V4_DETECTORTYPE = 1
_V4_DETECTORFLAGS = 524545
_V4_DETECTORHV = 687
_V4_DETECTORGAIN = 80
_V4_DETECTORLLD1 = 0.69
_V4_DETECTORWW1 = 1.176
_V4_DETECTORLLD2 = 0
_V4_DETECTORWW2 = 0
_V4_DETECTORPS = 0
_V4_DETECTORDT = 0
_V4_DETECTORPILEUPTIME = 0
_V4_COUNTERS_MASK = 1
[...]
  60.8000        208
  61.2000        214
  61.6000        239
  62.0000        249
  62.4000        214
  62.8000        249
  63.2000        260
  63.6000        232
  64.0000        232
  64.4000        242
  64.8000        229
  65.2000        246
  65.6000        265
  66.0000        227
  66.4000        239
  66.8000        242
  67.2000        243
  67.6000        243
  68.0000        232
  68.4000        246
  68.8000        257
  69.2000        277
  69.6000        280
  70.0000        248
  70.4000        267
  70.8000        259
  71.2000        248
  71.6000        236
  72.0000        254
  72.4000        270
  72.8000        252
  73.2000        256
  73.6000        244
  74.0000        272
  74.4000        283
  74.8000        281
  75.2000        269
  75.6000        279
  76.0000        290
  76.4000        340
  76.8000        324
  77.2000        329
  77.6000        310
  78.0000        292
  78.4000        268
  78.8000        286
  79.2000        279
  79.6000        281
  80.0000        282
  80.4000        293
  80.8000        288
  81.2000        290
  81.6000        320
  82.0000        304
  82.4000        285
  82.8000        319
  83.2000        258
  83.6000        290
  84.0000        306
  84.4000        317
  84.8000        277
  85.2000        300
  85.6000        295
  86.0000        272
  86.4000        316
  86.8000        284
  87.2000        276
  87.6000        304
  88.0000        319
  88.4000        303
  88.8000        322
  89.2000        331
  89.6000        293
  90.0000        344
  90.4000        308
  90.8000        308
  91.2000        315
  91.6000        317
  92.0000        307
  92.4000        337
  92.8000        335
  93.2000        324
  93.6000        328
  94.0000        312
  94.4000        324
  94.8000        305
  95.2000        293
  95.6000        343
  96.0000        334
  96.4000        305
  96.8000        303
  97.2000        317
  97.6000        342
  98.0000        436
  98.4000        483
  98.8000        555
  99.2000        579
  99.6000        528
 100.0000        509
 100.4000        432
 100.8000        345
 101.2000        358
 101.6000        335
 102.0000        340
 102.4000        344
 102.8000        360
 103.2000        346
 103.6000        337
 104.0000        359
 104.4000        360
 104.8000        346
 105.2000        369
 105.6000        354
 106.0000        374
 106.4000        369
 106.8000        369
 107.2000        344
 107.6000        376
 108.0000        359
 108.4000        354
 108.8000        360
 109.2000        390
 109.6000        393
 110.0000        375
 110.4000        365
 110.8000        366
 111.2000        355
 111.6000        337
 112.0000        376
 112.4000        334
 112.8000        376
 113.2000        378
 113.6000        363
 114.0000        360
 114.4000        370
 114.8000        361
 115.2000        347
 115.6000        367
 116.0000        337
 116.4000        345
 116.8000        352
 117.2000        360
 117.6000        362
 118.0000        399
 118.4000        398
 118.8000        383
 119.2000        378
 119.6000        371
 120.0000        375
 120.4000        377
 120.8000        365
 121.2000        385
 121.6000        359
 122.0000        418
 122.4000        479
 122.8000        486
 123.2000        525
 123.6000        437
 124.0000        440
 124.4000        424
 124.8000        394
 125.2000        362
 125.6000        355
 126.0000        366
 126.4000        360
 126.8000        372
 127.2000        359
 127.6000        337
 128.0000        378
 128.4000        355
 128.8000        392
 129.2000        344
 129.6000        352
 130.0000        351