Folder: sw/exp_dat/old/exp_2013_11_11 (part 4)

File: 08pct_40L.uxd
; (content of file C:\DIFFDAT1\GIFT\MDL\Seawoong Lee\20131104_MV8\equal_area_maxkhi080_n8_2th40_130_x25y-25_40L.raw)
_FILEVERSION = 3
_SAMPLE =
_+SAMPLE =
_SITE = Korea
_USER = Admin
_GONIOMETER_CODE = 20
; Goniometer : D8 theta/2theta, stage : Unknown
_SAMPLE_CHANGER_CODE = 0
_ATTACHMENTS_CODE = 0
_GONIOMETER_RADIUS = 300
_FIXED_DIVSLIT = 1
_FIXED_SAMPLESLIT = 0
_SOLLER_SLITS = 2
_FIXED_DETSLIT = 0.1
_MONOCHROMATOR = 0
; Incident beam monochromator : None
_SOLLER_SLITS_2 = 2
_THIN_FILM = N
_BETA_FILTER = Y
_FIXED_ANTISLIT = 0.6
_ANALYZER_CODE = 0
; Received beam analyzer : None
_DATEMEASURED = "06-Nov-2013 13:17:20"
_WL_UNIT = A
_WL1 = 1.78897
_WL2 = 1.79285
_WL3 = 1.62079
_WLRATIO = 0.5
_ANODE = Co
_V4_INF_CREATOR = XRDWizard
_V4_INF_CREATOR_VERSION = V2.9.0.22
_V4_INF_WIZARD_VERSION = V2.9.0.22
_V4_INF_WIZARD_ADDINS = V2.9.0.22
_V4_INF_WIZARD_DOCTYPE = XRD
_V4_INF_OSUSER = Postech
_V4_INF_USER = Admin
_V4_INF_SITE = Korea

; Data for range 1
_DRIVE = COUPLED
_STEPTIME = 0.2
_STEPSIZE = 0.1
_STEPMODE = C
_START = 40
_THETA = 20
_2THETA = 40
_KHI = 0
_PHI = 0
_X = 25
_Y = -25
_Z = 0
_DETECTOR = 1
; Detector type : Scintillation counter
_HV = 687
_GAIN = 80
_LLD = 0.69
_ULD = 1.866
_DETECTORSLIT = unkn
_AUX1 = 0
_AUX2 = 0
_AUX3 = 0
_TIMESTARTED = 11
_TEMP_RATE = -1
_TEMP_DELAY = -1
_KV = 35
_MA = 40
_RANGE_WL = 1.78897
_3DPLANE = 0
_V4_ADDITIONALDETECTOR = 0
_V4_D8_DIBNUM = 1
_V4_DETECTORNAME = "Detector 1"
_V4_TTLDETECTOR = None
_V4_DETECTORTYPE = 1
_V4_DETECTORFLAGS = 524545
_V4_DETECTORHV = 687
_V4_DETECTORGAIN = 80
_V4_DETECTORLLD1 = 0.69
_V4_DETECTORWW1 = 1.176
_V4_DETECTORLLD2 = 0
_V4_DETECTORWW2 = 0
_V4_DETECTORPS = 0
_V4_DETECTORDT = 0
_V4_DETECTORPILEUPTIME = 0
_V4_COUNTERS_MASK = 1
_V4_DRIVES_MASK = 0
_V4_ENCODERS_MASK = 0
_2THETACOUNTS = 1
; 2THETA  Cnt1_D1
  40.0000        532
  40.4000        505
  40.8000        476
  41.2000        530
  41.6000        498
  42.0000        527
  42.4000        529
  42.8000        540
  43.2000        499
  43.6000        529
  44.0000        519
  44.4000        591
  44.8000        489
  45.2000        530
  45.6000        505
  46.0000        537
  46.4000        525
  46.8000        516
  47.2000        499
  47.6000        502
  48.0000        510
  48.4000        518
  48.8000        474
  49.2000        533
  49.6000        500
  50.0000        484
  50.4000        542
  50.8000        610
  51.2000        622
  51.6000        804
  52.0000       1609
  52.4000       1344
  52.8000        555
  53.2000        529
  53.6000        540
  54.0000        537
  54.4000        535
  54.8000        541
  55.2000        513
  55.6000        523
  56.0000        503
  56.4000        565
  56.8000        512
  57.2000        518
  57.6000        522
  58.0000        528
  58.4000        503
  58.8000        535
  59.2000        527
  59.6000        605
  60.0000        557
  60.4000        534
  60.8000        545
  61.2000        510
  61.6000        513
  62.0000        549
  62.4000        514
  62.8000        496
  63.2000        477
  63.6000        509
  64.0000        491
  64.4000        491
  64.8000        518
  65.2000        484
  65.6000        482
  66.0000        513
  66.4000        523
  66.8000        512
  67.2000        557
  67.6000        474
  68.0000        496
  68.4000        513
  68.8000        494
  69.2000        488
  69.6000        545
  70.0000        504
  70.4000        520
  70.8000        462
  71.2000        494
  71.6000        510
  72.0000        517
  72.4000        509
  72.8000        544
  73.2000        503
  73.6000        477
  74.0000        477
  74.4000        507
  74.8000        483
  75.2000        475
  75.6000        467
  76.0000        521
  76.4000        720
  76.8000        923
  77.2000        841
  77.6000        579
  78.0000        497
  78.4000        521
  78.8000        484
  79.2000        506
  79.6000        535
  80.0000        510
  80.4000        516
  80.8000        558
  81.2000        503
  81.6000        520
  82.0000        509
  82.4000        535
  82.8000        534
  83.2000        544
  83.6000        526
  84.0000        519
  84.4000        504
  84.8000        509
  85.2000        523
  85.6000        509
  86.0000        538
  86.4000        519
  86.8000        550
  87.2000        532
  87.6000        492
  88.0000        513
  88.4000        496
  88.8000        592
  89.2000        731
  89.6000        681
  90.0000        566
  90.4000        518
  90.8000        520
  91.2000        523
  91.6000        488
  92.0000        520
  92.4000        516
  92.8000        484
  93.2000        465
  93.6000        514
  94.0000        507
  94.4000        515
  94.8000        469
  95.2000        493
  95.6000        512
  96.0000        483
  96.4000        504
  96.8000        552
  97.2000        488
  97.6000        517
  98.0000        461
  98.4000        557
  98.8000        831
  99.2000       1211
  99.6000       1186
 100.0000        689
 100.4000        514
 100.8000        495
 101.2000        513
 101.6000        518
 102.0000        504
 102.4000        517
 102.8000        508
 103.2000        484
 103.6000        488
 104.0000        536
 104.4000        490
 104.8000        480
 105.2000        506
 105.6000        525
 106.0000        539
 106.4000        475
 106.8000        512
 107.2000        507
 107.6000        494
 108.0000        513
 108.4000        540
 108.8000        520
 109.2000        516
 109.6000        522
 110.0000        510
 110.4000        553
 110.8000        585
 111.2000        635
 111.6000        552
 112.0000        492
 112.4000        508
 112.8000        487
 113.2000        522
 113.6000        484
 114.0000        576
 114.4000        538
 114.8000        522
 115.2000        447
 115.6000        524
 116.0000        521
 116.4000        491
 116.8000        494
 117.2000        491
 117.6000        532
 118.0000        505
 118.4000        496
 118.8000        467
 119.2000        557
 119.6000        497
 120.0000        544
 120.4000        507
 120.8000        486
 121.2000        474
 121.6000        526
 122.0000        501
 122.4000        519
 122.8000        531
 123.2000        524
 123.6000        596
 124.0000        559
 124.4000        523
 124.8000        510
 125.2000        493
 125.6000        525
 126.0000        509
 126.4000        534
 126.8000        506
 127.2000        530
 127.6000        531
 128.0000        478
 128.4000        543
 128.8000        483
 129.2000        483
 129.6000        518
 130.0000        463

; Data for range 2
_DRIVE = COUPLED
_STEPTIME = 0.2
_STEPSIZE = 0.1
_STEPMODE = C
_START = 40
_THETA = 20
_2THETA = 40
_KHI = 10.5
_PHI = 60
_X = 25
_Y = -25
_Z = 0
_DETECTOR = 1
; Detector type : Scintillation counter
_HV = 687
_GAIN = 80
_LLD = 0.69
_ULD = 1.866
_DETECTORSLIT = unkn
_AUX1 = 0
_AUX2 = 0
_AUX3 = 0
_TIMESTARTED = 209
_TEMP_RATE = -1
_TEMP_DELAY = -1
_KV = 35
_MA = 40
_RANGE_WL = 1.78897
_3DPLANE = 0
_V4_ADDITIONALDETECTOR = 0
_V4_D8_DIBNUM = 1
_V4_DETECTORNAME = "Detector 1"
_V4_TTLDETECTOR = None
_V4_DETECTORTYPE = 1
_V4_DETECTORFLAGS = 524545
_V4_DETECTORHV = 687
_V4_DETECTORGAIN = 80
_V4_DETECTORLLD1 = 0.69
_V4_DETECTORWW1 = 1.176
_V4_DETECTORLLD2 = 0
_V4_DETECTORWW2 = 0
_V4_DETECTORPS = 0
_V4_DETECTORDT = 0
_V4_DETECTORPILEUPTIME = 0
_V4_COUNTERS_MASK = 1
[...]
  60.8000        214
  61.2000        185
  61.6000        176
  62.0000        189
  62.4000        197
  62.8000        178
  63.2000        218
  63.6000        227
  64.0000        189
  64.4000        241
  64.8000        184
  65.2000        215
  65.6000        223
  66.0000        228
  66.4000        237
  66.8000        229
  67.2000        260
  67.6000        217
  68.0000        246
  68.4000        237
  68.8000        265
  69.2000        216
  69.6000        230
  70.0000        219
  70.4000        217
  70.8000        252
  71.2000        237
  71.6000        246
  72.0000        232
  72.4000        241
  72.8000        230
  73.2000        278
  73.6000        249
  74.0000        240
  74.4000        282
  74.8000        262
  75.2000        255
  75.6000        238
  76.0000        271
  76.4000        280
  76.8000        273
  77.2000        273
  77.6000        301
  78.0000        299
  78.4000        255
  78.8000        242
  79.2000        290
  79.6000        286
  80.0000        283
  80.4000        246
  80.8000        266
  81.2000        271
  81.6000        265
  82.0000        270
  82.4000        257
  82.8000        272
  83.2000        272
  83.6000        290
  84.0000        307
  84.4000        298
  84.8000        274
  85.2000        269
  85.6000        265
  86.0000        287
  86.4000        292
  86.8000        288
  87.2000        284
  87.6000        296
  88.0000        265
  88.4000        305
  88.8000        306
  89.2000        343
  89.6000        321
  90.0000        302
  90.4000        310
  90.8000        298
  91.2000        323
  91.6000        307
  92.0000        324
  92.4000        331
  92.8000        287
  93.2000        321
  93.6000        324
  94.0000        321
  94.4000        327
  94.8000        304
  95.2000        336
  95.6000        326
  96.0000        302
  96.4000        313
  96.8000        325
  97.2000        317
  97.6000        351
  98.0000        309
  98.4000        412
  98.8000        475
  99.2000        506
  99.6000        547
 100.0000        446
 100.4000        390
 100.8000        367
 101.2000        340
 101.6000        332
 102.0000        333
 102.4000        373
 102.8000        345
 103.2000        331
 103.6000        340
 104.0000        340
 104.4000        345
 104.8000        381
 105.2000        337
 105.6000        331
 106.0000        366
 106.4000        352
 106.8000        380
 107.2000        365
 107.6000        342
 108.0000        357
 108.4000        315
 108.8000        344
 109.2000        395
 109.6000        388
 110.0000        399
 110.4000        384
 110.8000        365
 111.2000        366
 111.6000        372
 112.0000        369
 112.4000        357
 112.8000        381
 113.2000        373
 113.6000        377
 114.0000        372
 114.4000        386
 114.8000        406
 115.2000        331
 115.6000        379
 116.0000        372
 116.4000        372
 116.8000        369
 117.2000        370
 117.6000        372
 118.0000        362
 118.4000        390
 118.8000        449
 119.2000        421
 119.6000        411
 120.0000        376
 120.4000        408
 120.8000        409
 121.2000        408
 121.6000        389
 122.0000        399
 122.4000        415
 122.8000        482
 123.2000        563
 123.6000        592
 124.0000        538
 124.4000        436
 124.8000        366
 125.2000        396
 125.6000        394
 126.0000        400
 126.4000        416
 126.8000        398
 127.2000        404
 127.6000        337
 128.0000        341
 128.4000        385
 128.8000        371
 129.2000        366
 129.6000        347
 130.0000        351

File: 09pct_40G.uxd
; (content of file C:\DIFFDAT1\GIFT\MDL\Seawoong Lee\20131104_MV8\equal_area_maxkhi080_n8_2th40_130_x00y00_40g.raw)
_FILEVERSION = 3
_SAMPLE =
_+SAMPLE =
_SITE = Korea
_USER = Admin
_GONIOMETER_CODE = 20
; Goniometer : D8 theta/2theta, stage : Unknown
_SAMPLE_CHANGER_CODE = 0
_ATTACHMENTS_CODE = 0
_GONIOMETER_RADIUS = 300
_FIXED_DIVSLIT = 1
_FIXED_SAMPLESLIT = 0
_SOLLER_SLITS = 2
_FIXED_DETSLIT = 0.1
_MONOCHROMATOR = 0
; Incident beam monochromator : None
_SOLLER_SLITS_2 = 2
_THIN_FILM = N
_BETA_FILTER = Y
_FIXED_ANTISLIT = 0.6
_ANALYZER_CODE = 0
; Received beam analyzer : None
_DATEMEASURED = "09-Nov-2013 00:32:21"
_WL_UNIT = A
_WL1 = 1.78897
_WL2 = 1.79285
_WL3 = 1.62079
_WLRATIO = 0.5
_ANODE = Co
_V4_INF_CREATOR = XRDWizard
_V4_INF_CREATOR_VERSION = V2.9.0.22
_V4_INF_WIZARD_VERSION = V2.9.0.22
_V4_INF_WIZARD_ADDINS = V2.9.0.22
_V4_INF_WIZARD_DOCTYPE = XRD
_V4_INF_OSUSER = Postech
_V4_INF_USER = Admin
_V4_INF_SITE = Korea

; Data for range 1
_DRIVE = COUPLED
_STEPTIME = 0.2
_STEPSIZE = 0.1
_STEPMODE = C
_START = 40
_THETA = 20
_2THETA = 40
_KHI = 0
_PHI = 0
_X = 0
_Y = 0
_Z = 0
_DETECTOR = 1
; Detector type : Scintillation counter
_HV = 687
_GAIN = 80
_LLD = 0.69
_ULD = 1.866
_DETECTORSLIT = unkn
_AUX1 = 0
_AUX2 = 0
_AUX3 = 0
_TIMESTARTED = 27
_TEMP_RATE = -1
_TEMP_DELAY = -1
_KV = 35
_MA = 40
_RANGE_WL = 1.78897
_3DPLANE = 0
_V4_ADDITIONALDETECTOR = 0
_V4_D8_DIBNUM = 1
_V4_DETECTORNAME = "Detector 1"
_V4_TTLDETECTOR = None
_V4_DETECTORTYPE = 1
_V4_DETECTORFLAGS = 524545
_V4_DETECTORHV = 687
_V4_DETECTORGAIN = 80
_V4_DETECTORLLD1 = 0.69
_V4_DETECTORWW1 = 1.176
_V4_DETECTORLLD2 = 0
_V4_DETECTORWW2 = 0
_V4_DETECTORPS = 0
_V4_DETECTORDT = 0
_V4_DETECTORPILEUPTIME = 0
_V4_COUNTERS_MASK = 1
_V4_DRIVES_MASK = 0
_V4_ENCODERS_MASK = 0
_2THETACOUNTS = 1
; 2THETA  Cnt1_D1
  40.0000        529
  40.4000        526
  40.8000        549
  41.2000        532
  41.6000        530
  42.0000        543
  42.4000        501
  42.8000        559
  43.2000        520
  43.6000        563
  44.0000        520
  44.4000        466
  44.8000        526
  45.2000        516
  45.6000        526
  46.0000        530
  46.4000        531
  46.8000        528
  47.2000        506
  47.6000        495
  48.0000        528
  48.4000        495
  48.8000        495
  49.2000        510
  49.6000        521
  50.0000        549
  50.4000        563
  50.8000        510
  51.2000        574
  51.6000        745
  52.0000       1153
  52.4000       1086
  52.8000        593
  53.2000        520
  53.6000        546
  54.0000        522
  54.4000        517
  54.8000        524
  55.2000        480
  55.6000        502
  56.0000        541
  56.4000        539
  56.8000        536
  57.2000        510
  57.6000        511
  58.0000        556
  58.4000        544
  58.8000        539
  59.2000        490
  59.6000        544
  60.0000        510
  60.4000        514
  60.8000        541
  61.2000        516
  61.6000        505
  62.0000        485
  62.4000        542
  62.8000        545
  63.2000        508
  63.6000        481
  64.0000        521
  64.4000        531
  64.8000        505
  65.2000        472
  65.6000        536
  66.0000        491
  66.4000        536
  66.8000        498
  67.2000        527
  67.6000        506
  68.0000        542
  68.4000        539
  68.8000        493
  69.2000        504
  69.6000        513
  70.0000        525
  70.4000        519
  70.8000        524
  71.2000        493
  71.6000        503
  72.0000        477
  72.4000        459
  72.8000        508
  73.2000        465
  73.6000        484
  74.0000        533
  74.4000        469
  74.8000        533
  75.2000        513
  75.6000        550
  76.0000        627
  76.4000       1026
  76.8000       1308
  77.2000        992
  77.6000        658
  78.0000        619
  78.4000        541
  78.8000        518
  79.2000        496
  79.6000        491
  80.0000        516
  80.4000        521
  80.8000        532
  81.2000        539
  81.6000        525
  82.0000        474
  82.4000        481
  82.8000        535
  83.2000        511
  83.6000        506
  84.0000        512
  84.4000        512
  84.8000        477
  85.2000        479
  85.6000        516
  86.0000        515
  86.4000        500
  86.8000        523
  87.2000        511
  87.6000        531
  88.0000        526
  88.4000        504
  88.8000        505
  89.2000        509
  89.6000        513
  90.0000        559
  90.4000        514
  90.8000        484
  91.2000        471
  91.6000        561
  92.0000        503
  92.4000        490
  92.8000        543
  93.2000        479
  93.6000        541
  94.0000        521
  94.4000        465
  94.8000        505
  95.2000        487
  95.6000        533
  96.0000        500
  96.4000        524
  96.8000        538
  97.2000        535
  97.6000        506
  98.0000        588
  98.4000        724
  98.8000       1108
  99.2000       1598
  99.6000       1385
 100.0000        832
 100.4000        638
 100.8000        539
 101.2000        522
 101.6000        521
 102.0000        508
 102.4000        539
 102.8000        521
 103.2000        538
 103.6000        514
 104.0000        538
 104.4000        476
 104.8000        528
 105.2000        549
 105.6000        506
 106.0000        551
 106.4000        519
 106.8000        529
 107.2000        502
 107.6000        551
 108.0000        456
 108.4000        509
 108.8000        511
 109.2000        520
 109.6000        557
 110.0000        502
 110.4000        558
 110.8000        522
 111.2000        515
 111.6000        513
 112.0000        506
 112.4000        478
 112.8000        500
 113.2000        554
 113.6000        486
 114.0000        528
 114.4000        501
 114.8000        494
 115.2000        482
 115.6000        537
 116.0000        484
 116.4000        523
 116.8000        497
 117.2000        541
 117.6000        553
 118.0000        515
 118.4000        536
 118.8000        535
 119.2000        529
 119.6000        503
 120.0000        464
 120.4000        528
 120.8000        540
 121.2000        529
 121.6000        504
 122.0000        523
 122.4000        500
 122.8000        507
 123.2000        527
 123.6000        558
 124.0000        530
 124.4000        532
 124.8000        498
 125.2000        542
 125.6000        511
 126.0000        474
 126.4000        526
 126.8000        465
 127.2000        519
 127.6000        526
 128.0000        515
 128.4000        525
 128.8000        528
 129.2000        519
 129.6000        546
 130.0000        515

; Data for range 2
_DRIVE = COUPLED
_STEPTIME = 0.2
_STEPSIZE = 0.1
_STEPMODE = C
_START = 40
_THETA = 20
_2THETA = 40
_KHI = 10.5
_PHI = 60
_X = 0
_Y = 0
_Z = 0
_DETECTOR = 1
; Detector type : Scintillation counter
_HV = 687
_GAIN = 80
_LLD = 0.69
_ULD = 1.866
_DETECTORSLIT = unkn
_AUX1 = 0
_AUX2 = 0
_AUX3 = 0
_TIMESTARTED = 225
_TEMP_RATE = -1
_TEMP_DELAY = -1
_KV = 35
_MA = 40
_RANGE_WL = 1.78897
_3DPLANE = 0
_V4_ADDITIONALDETECTOR = 0
_V4_D8_DIBNUM = 1
_V4_DETECTORNAME = "Detector 1"
_V4_TTLDETECTOR = None
_V4_DETECTORTYPE = 1
_V4_DETECTORFLAGS = 524545
_V4_DETECTORHV = 687
_V4_DETECTORGAIN = 80
_V4_DETECTORLLD1 = 0.69
_V4_DETECTORWW1 = 1.176
_V4_DETECTORLLD2 = 0
_V4_DETECTORWW2 = 0
_V4_DETECTORPS = 0
_V4_DETECTORDT = 0
_V4_DETECTORPILEUPTIME = 0
_V4_COUNTERS_MASK = 1
[...]
  60.8000        233
  61.2000        254
  61.6000        256
  62.0000        221
  62.4000        239
  62.8000        242
  63.2000        261
  63.6000        261
  64.0000        261
  64.4000        264
  64.8000        251
  65.2000        292
  65.6000        277
  66.0000        258
  66.4000        254
  66.8000        254
  67.2000        252
  67.6000        286
  68.0000        272
  68.4000        273
  68.8000        289
  69.2000        268
  69.6000        291
  70.0000        279
  70.4000        278
  70.8000        272
  71.2000        267
  71.6000        294
  72.0000        278
  72.4000        270
  72.8000        301
  73.2000        301
  73.6000        274
  74.0000        307
  74.4000        281
  74.8000        318
  75.2000        298
  75.6000        321
  76.0000        363
  76.4000        335
  76.8000        359
  77.2000        375
  77.6000        342
  78.0000        315
  78.4000        350
  78.8000        289
  79.2000        328
  79.6000        302
  80.0000        372
  80.4000        312
  80.8000        342
  81.2000        340
  81.6000        354
  82.0000        311
  82.4000        331
  82.8000        309
  83.2000        366
  83.6000        323
  84.0000        361
  84.4000        379
  84.8000        316
  85.2000        346
  85.6000        353
  86.0000        351
  86.4000        317
  86.8000        334
  87.2000        367
  87.6000        332
  88.0000        321
  88.4000        360
  88.8000        332
  89.2000        353
  89.6000        356
  90.0000        373
  90.4000        346
  90.8000        344
  91.2000        358
  91.6000        340
  92.0000        389
  92.4000        347
  92.8000        374
  93.2000        384
  93.6000        357
  94.0000        367
  94.4000        389
  94.8000        337
  95.2000        360
  95.6000        387
  96.0000        376
  96.4000        368
  96.8000        401
  97.2000        353
  97.6000        443
  98.0000        453
  98.4000        576
  98.8000        672
  99.2000        653
  99.6000        649
 100.0000        566
 100.4000        453
 100.8000        439
 101.2000        424
 101.6000        368
 102.0000        385
 102.4000        440
 102.8000        414
 103.2000        401
 103.6000        385
 104.0000        402
 104.4000        446
 104.8000        415
 105.2000        398
 105.6000        410
 106.0000        406
 106.4000        413
 106.8000        406
 107.2000        433
 107.6000        416
 108.0000        395
 108.4000        427
 108.8000        477
 109.2000        408
 109.6000        397
 110.0000        436
 110.4000        453
 110.8000        430
 111.2000        424
 111.6000        438
 112.0000        458
 112.4000        413
 112.8000        426
 113.2000        410
 113.6000        464
 114.0000        450
 114.4000        410
 114.8000        430
 115.2000        439
 115.6000        448
 116.0000        450
 116.4000        446
 116.8000        506
 117.2000        431
 117.6000        477
 118.0000        451
 118.4000        468
 118.8000        444
 119.2000        420
 119.6000        433
 120.0000        462
 120.4000        467
 120.8000        439
 121.2000        430
 121.6000        448
 122.0000        451
 122.4000        531
 122.8000        588
 123.2000        554
 123.6000        590
 124.0000        548
 124.4000        479
 124.8000        458
 125.2000        480
 125.6000        422
 126.0000        436
 126.4000        469
 126.8000        416
 127.2000        470
 127.6000        434
 128.0000        475
 128.4000        469
 128.8000        433
 129.2000        466
 129.6000        416
 130.0000        500