Folder: sw/exp_dat/old/exp_2013_11_11 (part 3)

File: 05pct_100G.uxd
; (content of file C:\DIFFDAT1\GIFT\MDL\Seawoong Lee\20131104_MV8\equal_area_maxkhi080_n8_2th40_130_x00y-25_100g.raw)
_FILEVERSION = 3
_SAMPLE =
_+SAMPLE =
_SITE = Korea
_USER = Admin
_GONIOMETER_CODE = 20
; Goniometer : D8 theta/2theta, stage : Unknown
_SAMPLE_CHANGER_CODE = 0
_ATTACHMENTS_CODE = 0
_GONIOMETER_RADIUS = 300
_FIXED_DIVSLIT = 1
_FIXED_SAMPLESLIT = 0
_SOLLER_SLITS = 2
_FIXED_DETSLIT = 0.1
_MONOCHROMATOR = 0
; Incident beam monochromator : None
_SOLLER_SLITS_2 = 2
_THIN_FILM = N
_BETA_FILTER = Y
_FIXED_ANTISLIT = 0.6
_ANALYZER_CODE = 0
; Received beam analyzer : None
_DATEMEASURED = "05-Nov-2013 21:53:16"
_WL_UNIT = A
_WL1 = 1.78897
_WL2 = 1.79285
_WL3 = 1.62079
_WLRATIO = 0.5
_ANODE = Co
_V4_INF_CREATOR = XRDWizard
_V4_INF_CREATOR_VERSION = V2.9.0.22
_V4_INF_WIZARD_VERSION = V2.9.0.22
_V4_INF_WIZARD_ADDINS = V2.9.0.22
_V4_INF_WIZARD_DOCTYPE = XRD
_V4_INF_OSUSER = Postech
_V4_INF_USER = Admin
_V4_INF_SITE = Korea

; Data for range 1
_DRIVE = COUPLED
_STEPTIME = 0.2
_STEPSIZE = 0.1
_STEPMODE = C
_START = 40
_THETA = 20
_2THETA = 40
_KHI = 0
_PHI = 0
_X = 0
_Y = -25
_Z = 0
_DETECTOR = 1
; Detector type : Scintillation counter
_HV = 687
_GAIN = 80
_LLD = 0.69
_ULD = 1.866
_DETECTORSLIT = unkn
_AUX1 = 0
_AUX2 = 0
_AUX3 = 0
_TIMESTARTED = 28
_TEMP_RATE = -1
_TEMP_DELAY = -1
_KV = 35
_MA = 40
_RANGE_WL = 1.78897
_3DPLANE = 0
_V4_ADDITIONALDETECTOR = 0
_V4_D8_DIBNUM = 1
_V4_DETECTORNAME = "Detector 1"
_V4_TTLDETECTOR = None
_V4_DETECTORTYPE = 1
_V4_DETECTORFLAGS = 524545
_V4_DETECTORHV = 687
_V4_DETECTORGAIN = 80
_V4_DETECTORLLD1 = 0.69
_V4_DETECTORWW1 = 1.176
_V4_DETECTORLLD2 = 0
_V4_DETECTORWW2 = 0
_V4_DETECTORPS = 0
_V4_DETECTORDT = 0
_V4_DETECTORPILEUPTIME = 0
_V4_COUNTERS_MASK = 1
_V4_DRIVES_MASK = 0
_V4_ENCODERS_MASK = 0
_2THETACOUNTS = 1
; 2THETA  Cnt1_D1
  40.0000        501
  40.4000        454
  40.8000        502
  41.2000        486
  41.6000        510
  42.0000        491
  42.4000        480
  42.8000        475
  43.2000        498
  43.6000        472
  44.0000        514
  44.4000        474
  44.8000        506
  45.2000        479
  45.6000        496
  46.0000        515
  46.4000        481
  46.8000        516
  47.2000        493
  47.6000        502
  48.0000        499
  48.4000        515
  48.8000        538
  49.2000        507
  49.6000        509
  50.0000        515
  50.4000        582
  50.8000        563
  51.2000        563
  51.6000        696
  52.0000       1007
  52.4000        972
  52.8000        631
  53.2000        473
  53.6000        506
  54.0000        556
  54.4000        517
  54.8000        498
  55.2000        475
  55.6000        509
  56.0000        513
  56.4000        524
  56.8000        537
  57.2000        533
  57.6000        459
  58.0000        518
  58.4000        489
  58.8000        535
  59.2000        540
  59.6000        589
  60.0000        502
  60.4000        544
  60.8000        510
  61.2000        530
  61.6000        482
  62.0000        536
  62.4000        515
  62.8000        502
  63.2000        542
  63.6000        520
  64.0000        487
  64.4000        477
  64.8000        500
  65.2000        563
  65.6000        517
  66.0000        530
  66.4000        487
  66.8000        483
  67.2000        486
  67.6000        492
  68.0000        517
  68.4000        522
  68.8000        499
  69.2000        511
  69.6000        526
  70.0000        466
  70.4000        526
  70.8000        503
  71.2000        513
  71.6000        509
  72.0000        477
  72.4000        494
  72.8000        508
  73.2000        520
  73.6000        587
  74.0000        537
  74.4000        478
  74.8000        535
  75.2000        523
  75.6000        529
  76.0000        580
  76.4000        945
  76.8000       1112
  77.2000        937
  77.6000        607
  78.0000        540
  78.4000        509
  78.8000        499
  79.2000        511
  79.6000        503
  80.0000        498
  80.4000        483
  80.8000        497
  81.2000        471
  81.6000        529
  82.0000        511
  82.4000        537
  82.8000        508
  83.2000        530
  83.6000        520
  84.0000        501
  84.4000        506
  84.8000        495
  85.2000        486
  85.6000        517
  86.0000        534
  86.4000        520
  86.8000        516
  87.2000        512
  87.6000        498
  88.0000        503
  88.4000        517
  88.8000        557
  89.2000        641
  89.6000        671
  90.0000        567
  90.4000        556
  90.8000        543
  91.2000        519
  91.6000        560
  92.0000        514
  92.4000        512
  92.8000        509
  93.2000        502
  93.6000        512
  94.0000        463
  94.4000        495
  94.8000        488
  95.2000        545
  95.6000        537
  96.0000        478
  96.4000        549
  96.8000        535
  97.2000        528
  97.6000        513
  98.0000        568
  98.4000        635
  98.8000       1150
  99.2000       1515
  99.6000       1312
 100.0000        775
 100.4000        543
 100.8000        511
 101.2000        518
 101.6000        489
 102.0000        535
 102.4000        488
 102.8000        509
 103.2000        504
 103.6000        525
 104.0000        493
 104.4000        500
 104.8000        524
 105.2000        508
 105.6000        506
 106.0000        529
 106.4000        518
 106.8000        514
 107.2000        493
 107.6000        494
 108.0000        503
 108.4000        522
 108.8000        538
 109.2000        545
 109.6000        523
 110.0000        543
 110.4000        514
 110.8000        552
 111.2000        572
 111.6000        537
 112.0000        507
 112.4000        514
 112.8000        502
 113.2000        526
 113.6000        519
 114.0000        531
 114.4000        503
 114.8000        524
 115.2000        520
 115.6000        496
 116.0000        509
 116.4000        521
 116.8000        500
 117.2000        550
 117.6000        524
 118.0000        538
 118.4000        522
 118.8000        533
 119.2000        521
 119.6000        550
 120.0000        533
 120.4000        496
 120.8000        505
 121.2000        512
 121.6000        517
 122.0000        535
 122.4000        505
 122.8000        561
 123.2000        549
 123.6000        588
 124.0000        546
 124.4000        513
 124.8000        466
 125.2000        513
 125.6000        473
 126.0000        503
 126.4000        540
 126.8000        509
 127.2000        516
 127.6000        493
 128.0000        500
 128.4000        501
 128.8000        523
 129.2000        496
 129.6000        507
 130.0000        519

; Data for range 2
_DRIVE = COUPLED
_STEPTIME = 0.2
_STEPSIZE = 0.1
_STEPMODE = C
_START = 40
_THETA = 20
_2THETA = 40
_KHI = 10.5
_PHI = 60
_X = 0
_Y = -25
_Z = 0
_DETECTOR = 1
; Detector type : Scintillation counter
_HV = 687
_GAIN = 80
_LLD = 0.69
_ULD = 1.866
_DETECTORSLIT = unkn
_AUX1 = 0
_AUX2 = 0
_AUX3 = 0
_TIMESTARTED = 225
_TEMP_RATE = -1
_TEMP_DELAY = -1
_KV = 35
_MA = 40
_RANGE_WL = 1.78897
_3DPLANE = 0
_V4_ADDITIONALDETECTOR = 0
_V4_D8_DIBNUM = 1
_V4_DETECTORNAME = "Detector 1"
_V4_TTLDETECTOR = None
_V4_DETECTORTYPE = 1
_V4_DETECTORFLAGS = 524545
_V4_DETECTORHV = 687
_V4_DETECTORGAIN = 80
_V4_DETECTORLLD1 = 0.69
_V4_DETECTORWW1 = 1.176
_V4_DETECTORLLD2 = 0
_V4_DETECTORWW2 = 0
_V4_DETECTORPS = 0
_V4_DETECTORDT = 0
_V4_DETECTORPILEUPTIME = 0
_V4_COUNTERS_MASK = 1
[...]
  60.8000        199
  61.2000        156
  61.6000        165
  62.0000        192
  62.4000        191
  62.8000        200
  63.2000        195
  63.6000        223
  64.0000        200
  64.4000        217
  64.8000        192
  65.2000        204
  65.6000        181
  66.0000        224
  66.4000        191
  66.8000        193
  67.2000        194
  67.6000        196
  68.0000        202
  68.4000        179
  68.8000        192
  69.2000        224
  69.6000        206
  70.0000        218
  70.4000        210
  70.8000        206
  71.2000        214
  71.6000        221
  72.0000        224
  72.4000        218
  72.8000        228
  73.2000        233
  73.6000        222
  74.0000        221
  74.4000        247
  74.8000        229
  75.2000        234
  75.6000        247
  76.0000        225
  76.4000        265
  76.8000        255
  77.2000        273
  77.6000        269
  78.0000        261
  78.4000        217
  78.8000        245
  79.2000        226
  79.6000        228
  80.0000        246
  80.4000        228
  80.8000        213
  81.2000        237
  81.6000        239
  82.0000        241
  82.4000        248
  82.8000        236
  83.2000        246
  83.6000        238
  84.0000        244
  84.4000        249
  84.8000        244
  85.2000        270
  85.6000        244
  86.0000        277
  86.4000        279
  86.8000        270
  87.2000        257
  87.6000        271
  88.0000        267
  88.4000        281
  88.8000        268
  89.2000        268
  89.6000        275
  90.0000        270
  90.4000        270
  90.8000        268
  91.2000        269
  91.6000        290
  92.0000        271
  92.4000        274
  92.8000        261
  93.2000        288
  93.6000        290
  94.0000        306
  94.4000        266
  94.8000        297
  95.2000        265
  95.6000        271
  96.0000        304
  96.4000        299
  96.8000        275
  97.2000        306
  97.6000        289
  98.0000        301
  98.4000        351
  98.8000        464
  99.2000        508
  99.6000        483
 100.0000        435
 100.4000        349
 100.8000        321
 101.2000        298
 101.6000        287
 102.0000        327
 102.4000        306
 102.8000        311
 103.2000        293
 103.6000        307
 104.0000        329
 104.4000        287
 104.8000        308
 105.2000        271
 105.6000        340
 106.0000        291
 106.4000        343
 106.8000        319
 107.2000        302
 107.6000        326
 108.0000        301
 108.4000        333
 108.8000        301
 109.2000        303
 109.6000        296
 110.0000        336
 110.4000        352
 110.8000        353
 111.2000        334
 111.6000        329
 112.0000        323
 112.4000        292
 112.8000        330
 113.2000        332
 113.6000        333
 114.0000        350
 114.4000        314
 114.8000        317
 115.2000        333
 115.6000        337
 116.0000        333
 116.4000        386
 116.8000        346
 117.2000        325
 117.6000        305
 118.0000        374
 118.4000        356
 118.8000        324
 119.2000        341
 119.6000        323
 120.0000        343
 120.4000        313
 120.8000        322
 121.2000        315
 121.6000        350
 122.0000        356
 122.4000        370
 122.8000        385
 123.2000        453
 123.6000        417
 124.0000        377
 124.4000        370
 124.8000        341
 125.2000        318
 125.6000        328
 126.0000        348
 126.4000        350
 126.8000        322
 127.2000        329
 127.6000        344
 128.0000        332
 128.4000        337
 128.8000        309
 129.2000        328
 129.6000        318
 130.0000        352

File: 06pct_50L.uxd
; (content of file C:\DIFFDAT1\GIFT\MDL\Seawoong Lee\20131104_MV8\equal_area_maxkhi080_n8_2th40_130_x25y-25_50L.RAW)
_FILEVERSION = 3
_SAMPLE =
_+SAMPLE =
_SITE = Korea
_USER = Admin
_GONIOMETER_CODE = 20
; Goniometer : D8 theta/2theta, stage : Unknown
_SAMPLE_CHANGER_CODE = 0
_ATTACHMENTS_CODE = 0
_GONIOMETER_RADIUS = 300
_FIXED_DIVSLIT = 1
_FIXED_SAMPLESLIT = 0
_SOLLER_SLITS = 2
_FIXED_DETSLIT = 0.1
_MONOCHROMATOR = 0
; Incident beam monochromator : None
_SOLLER_SLITS_2 = 2
_THIN_FILM = N
_BETA_FILTER = Y
_FIXED_ANTISLIT = 0.6
_ANALYZER_CODE = 0
; Received beam analyzer : None
_DATEMEASURED = "05-Nov-2013 13:09:24"
_WL_UNIT = A
_WL1 = 1.78897
_WL2 = 1.79285
_WL3 = 1.62079
_WLRATIO = 0.5
_ANODE = Co
_V4_INF_CREATOR = XRDWizard
_V4_INF_CREATOR_VERSION = V2.9.0.22
_V4_INF_WIZARD_VERSION = V2.9.0.22
_V4_INF_WIZARD_ADDINS = V2.9.0.22
_V4_INF_WIZARD_DOCTYPE = XRD
_V4_INF_OSUSER = Postech
_V4_INF_USER = Admin
_V4_INF_SITE = Korea

; Data for range 1
_DRIVE = COUPLED
_STEPTIME = 0.2
_STEPSIZE = 0.1
_STEPMODE = C
_START = 40
_THETA = 20
_2THETA = 40
_KHI = 0
_PHI = 0
_X = 25
_Y = -25
_Z = 0
_DETECTOR = 1
; Detector type : Scintillation counter
_HV = 687
_GAIN = 80
_LLD = 0.69
_ULD = 1.866
_DETECTORSLIT = unkn
_AUX1 = 0
_AUX2 = 0
_AUX3 = 0
_TIMESTARTED = 12
_TEMP_RATE = -1
_TEMP_DELAY = -1
_KV = 35
_MA = 40
_RANGE_WL = 1.78897
_3DPLANE = 0
_V4_ADDITIONALDETECTOR = 0
_V4_D8_DIBNUM = 1
_V4_DETECTORNAME = "Detector 1"
_V4_TTLDETECTOR = None
_V4_DETECTORTYPE = 1
_V4_DETECTORFLAGS = 524545
_V4_DETECTORHV = 687
_V4_DETECTORGAIN = 80
_V4_DETECTORLLD1 = 0.69
_V4_DETECTORWW1 = 1.176
_V4_DETECTORLLD2 = 0
_V4_DETECTORWW2 = 0
_V4_DETECTORPS = 0
_V4_DETECTORDT = 0
_V4_DETECTORPILEUPTIME = 0
_V4_COUNTERS_MASK = 1
_V4_DRIVES_MASK = 0
_V4_ENCODERS_MASK = 0
_2THETACOUNTS = 1
; 2THETA  Cnt1_D1
  40.0000        483
  40.4000        507
  40.8000        484
  41.2000        505
  41.6000        514
  42.0000        525
  42.4000        525
  42.8000        468
  43.2000        507
  43.6000        530
  44.0000        492
  44.4000        470
  44.8000        544
  45.2000        544
  45.6000        521
  46.0000        540
  46.4000        521
  46.8000        480
  47.2000        496
  47.6000        530
  48.0000        548
  48.4000        510
  48.8000        569
  49.2000        526
  49.6000        501
  50.0000        514
  50.4000        564
  50.8000        587
  51.2000        565
  51.6000        673
  52.0000       1227
  52.4000       1052
  52.8000        590
  53.2000        519
  53.6000        513
  54.0000        498
  54.4000        501
  54.8000        531
  55.2000        494
  55.6000        487
  56.0000        505
  56.4000        516
  56.8000        503
  57.2000        493
  57.6000        554
  58.0000        527
  58.4000        512
  58.8000        508
  59.2000        544
  59.6000        581
  60.0000        514
  60.4000        499
  60.8000        486
  61.2000        531
  61.6000        490
  62.0000        518
  62.4000        503
  62.8000        525
  63.2000        571
  63.6000        534
  64.0000        541
  64.4000        512
  64.8000        503
  65.2000        519
  65.6000        553
  66.0000        461
  66.4000        547
  66.8000        499
  67.2000        504
  67.6000        518
  68.0000        531
  68.4000        491
  68.8000        547
  69.2000        484
  69.6000        502
  70.0000        499
  70.4000        480
  70.8000        510
  71.2000        494
  71.6000        462
  72.0000        538
  72.4000        521
  72.8000        492
  73.2000        542
  73.6000        528
  74.0000        516
  74.4000        518
  74.8000        450
  75.2000        507
  75.6000        542
  76.0000        525
  76.4000        643
  76.8000        934
  77.2000        873
  77.6000        622
  78.0000        514
  78.4000        526
  78.8000        524
  79.2000        533
  79.6000        511
  80.0000        518
  80.4000        477
  80.8000        525
  81.2000        508
  81.6000        505
  82.0000        502
  82.4000        517
  82.8000        466
  83.2000        546
  83.6000        487
  84.0000        486
  84.4000        504
  84.8000        529
  85.2000        488
  85.6000        509
  86.0000        516
  86.4000        462
  86.8000        503
  87.2000        476
  87.6000        503
  88.0000        498
  88.4000        505
  88.8000        603
  89.2000        724
  89.6000        692
  90.0000        559
  90.4000        572
  90.8000        489
  91.2000        522
  91.6000        509
  92.0000        523
  92.4000        497
  92.8000        516
  93.2000        468
  93.6000        541
  94.0000        495
  94.4000        491
  94.8000        487
  95.2000        518
  95.6000        544
  96.0000        478
  96.4000        492
  96.8000        480
  97.2000        531
  97.6000        529
  98.0000        575
  98.4000        516
  98.8000        858
  99.2000       1440
  99.6000       1409
 100.0000        717
 100.4000        530
 100.8000        512
 101.2000        563
 101.6000        522
 102.0000        486
 102.4000        481
 102.8000        552
 103.2000        553
 103.6000        511
 104.0000        535
 104.4000        500
 104.8000        522
 105.2000        501
 105.6000        488
 106.0000        524
 106.4000        524
 106.8000        512
 107.2000        533
 107.6000        489
 108.0000        493
 108.4000        530
 108.8000        517
 109.2000        522
 109.6000        498
 110.0000        504
 110.4000        586
 110.8000        567
 111.2000        602
 111.6000        536
 112.0000        511
 112.4000        540
 112.8000        524
 113.2000        555
 113.6000        556
 114.0000        504
 114.4000        488
 114.8000        497
 115.2000        495
 115.6000        450
 116.0000        478
 116.4000        459
 116.8000        465
 117.2000        495
 117.6000        507
 118.0000        506
 118.4000        535
 118.8000        489
 119.2000        491
 119.6000        543
 120.0000        560
 120.4000        512
 120.8000        467
 121.2000        547
 121.6000        506
 122.0000        479
 122.4000        483
 122.8000        518
 123.2000        548
 123.6000        565
 124.0000        564
 124.4000        510
 124.8000        468
 125.2000        493
 125.6000        494
 126.0000        508
 126.4000        509
 126.8000        481
 127.2000        509
 127.6000        532
 128.0000        537
 128.4000        483
 128.8000        520
 129.2000        493
 129.6000        511
 130.0000        530

; Data for range 2
_DRIVE = COUPLED
_STEPTIME = 0.2
_STEPSIZE = 0.1
_STEPMODE = C
_START = 40
_THETA = 20
_2THETA = 40
_KHI = 10.5
_PHI = 60
_X = 25
_Y = -25
_Z = 0
_DETECTOR = 1
; Detector type : Scintillation counter
_HV = 687
_GAIN = 80
_LLD = 0.69
_ULD = 1.866
_DETECTORSLIT = unkn
_AUX1 = 0
_AUX2 = 0
_AUX3 = 0
_TIMESTARTED = 210
_TEMP_RATE = -1
_TEMP_DELAY = -1
_KV = 35
_MA = 40
_RANGE_WL = 1.78897
_3DPLANE = 0
_V4_ADDITIONALDETECTOR = 0
_V4_D8_DIBNUM = 1
_V4_DETECTORNAME = "Detector 1"
_V4_TTLDETECTOR = None
_V4_DETECTORTYPE = 1
_V4_DETECTORFLAGS = 524545
_V4_DETECTORHV = 687
_V4_DETECTORGAIN = 80
_V4_DETECTORLLD1 = 0.69
_V4_DETECTORWW1 = 1.176
_V4_DETECTORLLD2 = 0
_V4_DETECTORWW2 = 0
_V4_DETECTORPS = 0
_V4_DETECTORDT = 0
_V4_DETECTORPILEUPTIME = 0
_V4_COUNTERS_MASK = 1
[...]
  60.8000        202
  61.2000        204
  61.6000        198
  62.0000        221
  62.4000        224
  62.8000        216
  63.2000        229
  63.6000        235
  64.0000        220
  64.4000        233
  64.8000        207
  65.2000        237
  65.6000        207
  66.0000        209
  66.4000        246
  66.8000        213
  67.2000        206
  67.6000        224
  68.0000        203
  68.4000        233
  68.8000        217
  69.2000        258
  69.6000        250
  70.0000        245
  70.4000        234
  70.8000        250
  71.2000        259
  71.6000        236
  72.0000        223
  72.4000        239
  72.8000        228
  73.2000        228
  73.6000        235
  74.0000        232
  74.4000        255
  74.8000        272
  75.2000        273
  75.6000        272
  76.0000        236
  76.4000        320
  76.8000        324
  77.2000        292
  77.6000        286
  78.0000        264
  78.4000        273
  78.8000        259
  79.2000        244
  79.6000        264
  80.0000        264
  80.4000        247
  80.8000        248
  81.2000        294
  81.6000        303
  82.0000        241
  82.4000        243
  82.8000        245
  83.2000        277
  83.6000        282
  84.0000        270
  84.4000        299
  84.8000        288
  85.2000        306
  85.6000        283
  86.0000        293
  86.4000        252
  86.8000        312
  87.2000        284
  87.6000        288
  88.0000        280
  88.4000        284
  88.8000        330
  89.2000        337
  89.6000        340
  90.0000        296
  90.4000        289
  90.8000        314
  91.2000        325
  91.6000        303
  92.0000        297
  92.4000        313
  92.8000        296
  93.2000        283
  93.6000        275
  94.0000        305
  94.4000        276
  94.8000        304
  95.2000        294
  95.6000        304
  96.0000        321
  96.4000        335
  96.8000        281
  97.2000        327
  97.6000        319
  98.0000        340
  98.4000        371
  98.8000        493
  99.2000        488
  99.6000        467
 100.0000        437
 100.4000        356
 100.8000        299
 101.2000        309
 101.6000        335
 102.0000        340
 102.4000        303
 102.8000        317
 103.2000        323
 103.6000        312
 104.0000        336
 104.4000        337
 104.8000        330
 105.2000        341
 105.6000        313
 106.0000        313
 106.4000        334
 106.8000        350
 107.2000        352
 107.6000        377
 108.0000        368
 108.4000        359
 108.8000        342
 109.2000        372
 109.6000        353
 110.0000        365
 110.4000        352
 110.8000        376
 111.2000        383
 111.6000        334
 112.0000        333
 112.4000        341
 112.8000        363
 113.2000        361
 113.6000        326
 114.0000        333
 114.4000        359
 114.8000        372
 115.2000        321
 115.6000        358
 116.0000        363
 116.4000        343
 116.8000        340
 117.2000        384
 117.6000        382
 118.0000        345
 118.4000        371
 118.8000        378
 119.2000        371
 119.6000        380
 120.0000        348
 120.4000        369
 120.8000        341
 121.2000        332
 121.6000        377
 122.0000        348
 122.4000        435
 122.8000        472
 123.2000        519
 123.6000        496
 124.0000        434
 124.4000        393
 124.8000        397
 125.2000        315
 125.6000        368
 126.0000        367
 126.4000        388
 126.8000        331
 127.2000        356
 127.6000        362
 128.0000        378
 128.4000        342
 128.8000        319
 129.2000        386
 129.6000        383
 130.0000        361