Folder: sw/exp_dat/old/exp_2013_11_11 (part 5)

File: 10pct_30L.uxd
; (content of file C:\DIFFDAT1\GIFT\MDL\Seawoong Lee\20131104_MV8\equal_area_maxkhi080_n8_2th40_130_x25y00_30L.raw)
_FILEVERSION = 3
_SAMPLE =
_+SAMPLE =
_SITE = Korea
_USER = Admin
_GONIOMETER_CODE = 20
; Goniometer : D8 theta/2theta, stage : Unknown
_SAMPLE_CHANGER_CODE = 0
_ATTACHMENTS_CODE = 0
_GONIOMETER_RADIUS = 300
_FIXED_DIVSLIT = 1
_FIXED_SAMPLESLIT = 0
_SOLLER_SLITS = 2
_FIXED_DETSLIT = 0.1
_MONOCHROMATOR = 0
; Incident beam monochromator : None
_SOLLER_SLITS_2 = 2
_THIN_FILM = N
_BETA_FILTER = Y
_FIXED_ANTISLIT = 0.6
_ANALYZER_CODE = 0
; Received beam analyzer : None
_DATEMEASURED = "06-Nov-2013 16:11:57"
_WL_UNIT = A
_WL1 = 1.78897
_WL2 = 1.79285
_WL3 = 1.62079
_WLRATIO = 0.5
_ANODE = Co
_V4_INF_CREATOR = XRDWizard
_V4_INF_CREATOR_VERSION = V2.9.0.22
_V4_INF_WIZARD_VERSION = V2.9.0.22
_V4_INF_WIZARD_ADDINS = V2.9.0.22
_V4_INF_WIZARD_DOCTYPE = XRD
_V4_INF_OSUSER = Postech
_V4_INF_USER = Admin
_V4_INF_SITE = Korea

; Data for range 1
_DRIVE = COUPLED
_STEPTIME = 0.2
_STEPSIZE = 0.1
_STEPMODE = C
_START = 40
_THETA = 20
_2THETA = 40
_KHI = 0
_PHI = 0
_X = 25
_Y = 0
_Z = 0
_DETECTOR = 1
; Detector type : Scintillation counter
_HV = 687
_GAIN = 80
_LLD = 0.69
_ULD = 1.866
_DETECTORSLIT = unkn
_AUX1 = 0
_AUX2 = 0
_AUX3 = 0
_TIMESTARTED = 28
_TEMP_RATE = -1
_TEMP_DELAY = -1
_KV = 35
_MA = 40
_RANGE_WL = 1.78897
_3DPLANE = 0
_V4_ADDITIONALDETECTOR = 0
_V4_D8_DIBNUM = 1
_V4_DETECTORNAME = "Detector 1"
_V4_TTLDETECTOR = None
_V4_DETECTORTYPE = 1
_V4_DETECTORFLAGS = 524545
_V4_DETECTORHV = 687
_V4_DETECTORGAIN = 80
_V4_DETECTORLLD1 = 0.69
_V4_DETECTORWW1 = 1.176
_V4_DETECTORLLD2 = 0
_V4_DETECTORWW2 = 0
_V4_DETECTORPS = 0
_V4_DETECTORDT = 0
_V4_DETECTORPILEUPTIME = 0
_V4_COUNTERS_MASK = 1
_V4_DRIVES_MASK = 0
_V4_ENCODERS_MASK = 0
_2THETACOUNTS = 1
; 2THETA  Cnt1_D1
  40.0000        354
  40.4000        392
  40.8000        383
  41.2000        404
  41.6000        331
  42.0000        410
  42.4000        370
  42.8000        384
  43.2000        381
  43.6000        395
  44.0000        366
  44.4000        417
  44.8000        415
  45.2000        379
  45.6000        400
  46.0000        428
  46.4000        383
  46.8000        368
  47.2000        439
  47.6000        369
  48.0000        423
  48.4000        404
  48.8000        369
  49.2000        439
  49.6000        380
  50.0000        415
  50.4000        446
  50.8000        523
  51.2000        499
  51.6000        590
  52.0000       1243
  52.4000       1357
  52.8000        539
  53.2000        395
  53.6000        454
  54.0000        469
  54.4000        446
  54.8000        461
  55.2000        422
  55.6000        467
  56.0000        459
  56.4000        440
  56.8000        386
  57.2000        464
  57.6000        473
  58.0000        441
  58.4000        471
  58.8000        453
  59.2000        462
  59.6000        489
  60.0000        459
  60.4000        467
  60.8000        468
  61.2000        450
  61.6000        463
  62.0000        454
  62.4000        420
  62.8000        449
  63.2000        472
  63.6000        483
  64.0000        447
  64.4000        440
  64.8000        485
  65.2000        483
  65.6000        498
  66.0000        452
  66.4000        478
  66.8000        459
  67.2000        466
  67.6000        438
  68.0000        462
  68.4000        445
  68.8000        451
  69.2000        473
  69.6000        472
  70.0000        464
  70.4000        446
  70.8000        505
  71.2000        442
  71.6000        467
  72.0000        526
  72.4000        439
  72.8000        437
  73.2000        480
  73.6000        477
  74.0000        469
  74.4000        512
  74.8000        482
  75.2000        508
  75.6000        472
  76.0000        468
  76.4000        626
  76.8000        893
  77.2000        840
  77.6000        601
  78.0000        506
  78.4000        494
  78.8000        478
  79.2000        471
  79.6000        443
  80.0000        482
  80.4000        483
  80.8000        473
  81.2000        465
  81.6000        444
  82.0000        536
  82.4000        546
  82.8000        478
  83.2000        478
  83.6000        513
  84.0000        497
  84.4000        510
  84.8000        519
  85.2000        533
  85.6000        462
  86.0000        474
  86.4000        521
  86.8000        557
  87.2000        481
  87.6000        513
  88.0000        481
  88.4000        543
  88.8000        570
  89.2000        688
  89.6000        649
  90.0000        526
  90.4000        489
  90.8000        506
  91.2000        516
  91.6000        526
  92.0000        520
  92.4000        539
  92.8000        490
  93.2000        483
  93.6000        529
  94.0000        529
  94.4000        503
  94.8000        458
  95.2000        512
  95.6000        525
  96.0000        512
  96.4000        513
  96.8000        527
  97.2000        483
  97.6000        550
  98.0000        507
  98.4000        540
  98.8000        786
  99.2000       1347
  99.6000       1297
 100.0000        731
 100.4000        545
 100.8000        516
 101.2000        507
 101.6000        527
 102.0000        511
 102.4000        503
 102.8000        489
 103.2000        543
 103.6000        525
 104.0000        480
 104.4000        549
 104.8000        508
 105.2000        517
 105.6000        515
 106.0000        521
 106.4000        485
 106.8000        513
 107.2000        527
 107.6000        489
 108.0000        562
 108.4000        492
 108.8000        499
 109.2000        488
 109.6000        537
 110.0000        516
 110.4000        545
 110.8000        568
 111.2000        607
 111.6000        561
 112.0000        492
 112.4000        531
 112.8000        536
 113.2000        509
 113.6000        486
 114.0000        505
 114.4000        520
 114.8000        490
 115.2000        480
 115.6000        527
 116.0000        499
 116.4000        503
 116.8000        536
 117.2000        497
 117.6000        481
 118.0000        483
 118.4000        523
 118.8000        520
 119.2000        510
 119.6000        489
 120.0000        471
 120.4000        545
 120.8000        499
 121.2000        526
 121.6000        514
 122.0000        496
 122.4000        558
 122.8000        529
 123.2000        579
 123.6000        605
 124.0000        576
 124.4000        545
 124.8000        469
 125.2000        502
 125.6000        519
 126.0000        523
 126.4000        476
 126.8000        542
 127.2000        497
 127.6000        466
 128.0000        513
 128.4000        513
 128.8000        491
 129.2000        479
 129.6000        543
 130.0000        560

; Data for range 2
_DRIVE = COUPLED
_STEPTIME = 0.2
_STEPSIZE = 0.1
_STEPMODE = C
_START = 40
_THETA = 20
_2THETA = 40
_KHI = 10.5
_PHI = 60
_X = 25
_Y = 0
_Z = 0
_DETECTOR = 1
; Detector type : Scintillation counter
_HV = 687
_GAIN = 80
_LLD = 0.69
_ULD = 1.866
_DETECTORSLIT = unkn
_AUX1 = 0
_AUX2 = 0
_AUX3 = 0
_TIMESTARTED = 226
_TEMP_RATE = -1
_TEMP_DELAY = -1
_KV = 35
_MA = 40
_RANGE_WL = 1.78897
_3DPLANE = 0
_V4_ADDITIONALDETECTOR = 0
_V4_D8_DIBNUM = 1
_V4_DETECTORNAME = "Detector 1"
_V4_TTLDETECTOR = None
_V4_DETECTORTYPE = 1
_V4_DETECTORFLAGS = 524545
_V4_DETECTORHV = 687
_V4_DETECTORGAIN = 80
_V4_DETECTORLLD1 = 0.69
_V4_DETECTORWW1 = 1.176
_V4_DETECTORLLD2 = 0
_V4_DETECTORWW2 = 0
_V4_DETECTORPS = 0
_V4_DETECTORDT = 0
_V4_DETECTORPILEUPTIME = 0
_V4_COUNTERS_MASK = 1
[...]
  60.8000        163
  61.2000        167
  61.6000        161
  62.0000        158
  62.4000        169
  62.8000        162
  63.2000        161
  63.6000        187
  64.0000        165
  64.4000        164
  64.8000        173
  65.2000        157
  65.6000        154
  66.0000        166
  66.4000        189
  66.8000        153
  67.2000        190
  67.6000        175
  68.0000        192
  68.4000        168
  68.8000        179
  69.2000        185
  69.6000        199
  70.0000        167
  70.4000        191
  70.8000        169
  71.2000        203
  71.6000        175
  72.0000        190
  72.4000        181
  72.8000        206
  73.2000        177
  73.6000        163
  74.0000        188
  74.4000        202
  74.8000        190
  75.2000        162
  75.6000        176
  76.0000        173
  76.4000        203
  76.8000        218
  77.2000        241
  77.6000        243
  78.0000        221
  78.4000        202
  78.8000        176
  79.2000        185
  79.6000        189
  80.0000        208
  80.4000        170
  80.8000        181
  81.2000        178
  81.6000        170
  82.0000        184
  82.4000        195
  82.8000        184
  83.2000        197
  83.6000        192
  84.0000        195
  84.4000        191
  84.8000        203
  85.2000        202
  85.6000        187
  86.0000        200
  86.4000        186
  86.8000        195
  87.2000        217
  87.6000        196
  88.0000        188
  88.4000        204
  88.8000        219
  89.2000        187
  89.6000        199
  90.0000        225
  90.4000        207
  90.8000        194
  91.2000        205
  91.6000        230
  92.0000        196
  92.4000        207
  92.8000        193
  93.2000        199
  93.6000        202
  94.0000        218
  94.4000        205
  94.8000        206
  95.2000        183
  95.6000        216
  96.0000        198
  96.4000        221
  96.8000        237
  97.2000        209
  97.6000        223
  98.0000        236
  98.4000        219
  98.8000        294
  99.2000        294
  99.6000        385
 100.0000        334
 100.4000        286
 100.8000        239
 101.2000        234
 101.6000        210
 102.0000        237
 102.4000        212
 102.8000        236
 103.2000        230
 103.6000        247
 104.0000        272
 104.4000        249
 104.8000        234
 105.2000        242
 105.6000        264
 106.0000        221
 106.4000        253
 106.8000        237
 107.2000        238
 107.6000        236
 108.0000        246
 108.4000        243
 108.8000        248
 109.2000        246
 109.6000        232
 110.0000        277
 110.4000        273
 110.8000        274
 111.2000        288
 111.6000        288
 112.0000        265
 112.4000        277
 112.8000        275
 113.2000        285
 113.6000        245
 114.0000        296
 114.4000        278
 114.8000        278
 115.2000        285
 115.6000        247
 116.0000        273
 116.4000        267
 116.8000        270
 117.2000        288
 117.6000        255
 118.0000        292
 118.4000        321
 118.8000        328
 119.2000        307
 119.6000        304
 120.0000        297
 120.4000        299
 120.8000        319
 121.2000        294
 121.6000        333
 122.0000        265
 122.4000        294
 122.8000        366
 123.2000        385
 123.6000        406
 124.0000        390
 124.4000        358
 124.8000        296
 125.2000        269
 125.6000        323
 126.0000        323
 126.4000        326
 126.8000        298
 127.2000        288
 127.6000        330
 128.0000        297
 128.4000        286
 128.8000        308
 129.2000        326
 129.6000        302
 130.0000        304

File: 11pct_30G.uxd
; (content of file C:\DIFFDAT1\GIFT\MDL\Seawoong Lee\20131104_MV8\equal_area_maxkhi080_n8_2th40_130_x00y-25_30g.raw)
_FILEVERSION = 3
_SAMPLE =
_+SAMPLE =
_SITE = Korea
_USER = Admin
_GONIOMETER_CODE = 20
; Goniometer : D8 theta/2theta, stage : Unknown
_SAMPLE_CHANGER_CODE = 0
_ATTACHMENTS_CODE = 0
_GONIOMETER_RADIUS = 300
_FIXED_DIVSLIT = 1
_FIXED_SAMPLESLIT = 0
_SOLLER_SLITS = 2
_FIXED_DETSLIT = 0.1
_MONOCHROMATOR = 0
; Incident beam monochromator : None
_SOLLER_SLITS_2 = 2
_THIN_FILM = N
_BETA_FILTER = Y
_FIXED_ANTISLIT = 0.6
_ANALYZER_CODE = 0
; Received beam analyzer : None
_DATEMEASURED = "08-Nov-2013 21:37:44"
_WL_UNIT = A
_WL1 = 1.78897
_WL2 = 1.79285
_WL3 = 1.62079
_WLRATIO = 0.5
_ANODE = Co
_V4_INF_CREATOR = XRDWizard
_V4_INF_CREATOR_VERSION = V2.9.0.22
_V4_INF_WIZARD_VERSION = V2.9.0.22
_V4_INF_WIZARD_ADDINS = V2.9.0.22
_V4_INF_WIZARD_DOCTYPE = XRD
_V4_INF_OSUSER = Postech
_V4_INF_USER = Admin
_V4_INF_SITE = Korea

; Data for range 1
_DRIVE = COUPLED
_STEPTIME = 0.2
_STEPSIZE = 0.1
_STEPMODE = C
_START = 40
_THETA = 20
_2THETA = 40
_KHI = 0
_PHI = 0
_X = 0
_Y = -25
_Z = 0
_DETECTOR = 1
; Detector type : Scintillation counter
_HV = 687
_GAIN = 80
_LLD = 0.69
_ULD = 1.866
_DETECTORSLIT = unkn
_AUX1 = 0
_AUX2 = 0
_AUX3 = 0
_TIMESTARTED = 28
_TEMP_RATE = -1
_TEMP_DELAY = -1
_KV = 35
_MA = 40
_RANGE_WL = 1.78897
_3DPLANE = 0
_V4_ADDITIONALDETECTOR = 0
_V4_D8_DIBNUM = 1
_V4_DETECTORNAME = "Detector 1"
_V4_TTLDETECTOR = None
_V4_DETECTORTYPE = 1
_V4_DETECTORFLAGS = 524545
_V4_DETECTORHV = 687
_V4_DETECTORGAIN = 80
_V4_DETECTORLLD1 = 0.69
_V4_DETECTORWW1 = 1.176
_V4_DETECTORLLD2 = 0
_V4_DETECTORWW2 = 0
_V4_DETECTORPS = 0
_V4_DETECTORDT = 0
_V4_DETECTORPILEUPTIME = 0
_V4_COUNTERS_MASK = 1
_V4_DRIVES_MASK = 0
_V4_ENCODERS_MASK = 0
_2THETACOUNTS = 1
; 2THETA  Cnt1_D1
  40.0000        449
  40.4000        481
  40.8000        452
  41.2000        512
  41.6000        469
  42.0000        451
  42.4000        466
  42.8000        505
  43.2000        456
  43.6000        479
  44.0000        499
  44.4000        517
  44.8000        455
  45.2000        453
  45.6000        513
  46.0000        498
  46.4000        461
  46.8000        528
  47.2000        523
  47.6000        518
  48.0000        455
  48.4000        512
  48.8000        485
  49.2000        520
  49.6000        502
  50.0000        496
  50.4000        525
  50.8000        503
  51.2000        558
  51.6000        711
  52.0000       1118
  52.4000       1131
  52.8000        632
  53.2000        533
  53.6000        480
  54.0000        538
  54.4000        426
  54.8000        534
  55.2000        507
  55.6000        535
  56.0000        514
  56.4000        508
  56.8000        551
  57.2000        500
  57.6000        473
  58.0000        496
  58.4000        522
  58.8000        556
  59.2000        539
  59.6000        527
  60.0000        498
  60.4000        512
  60.8000        546
  61.2000        528
  61.6000        529
  62.0000        507
  62.4000        484
  62.8000        539
  63.2000        522
  63.6000        493
  64.0000        508
  64.4000        477
  64.8000        504
  65.2000        531
  65.6000        538
  66.0000        513
  66.4000        523
  66.8000        509
  67.2000        497
  67.6000        473
  68.0000        490
  68.4000        523
  68.8000        492
  69.2000        539
  69.6000        512
  70.0000        488
  70.4000        505
  70.8000        514
  71.2000        510
  71.6000        523
  72.0000        520
  72.4000        503
  72.8000        499
  73.2000        474
  73.6000        494
  74.0000        456
  74.4000        507
  74.8000        469
  75.2000        532
  75.6000        543
  76.0000        624
  76.4000       1012
  76.8000       1230
  77.2000        964
  77.6000        645
  78.0000        526
  78.4000        503
  78.8000        515
  79.2000        562
  79.6000        529
  80.0000        525
  80.4000        528
  80.8000        507
  81.2000        503
  81.6000        521
  82.0000        531
  82.4000        508
  82.8000        508
  83.2000        499
  83.6000        512
  84.0000        484
  84.4000        497
  84.8000        522
  85.2000        515
  85.6000        489
  86.0000        479
  86.4000        514
  86.8000        498
  87.2000        488
  87.6000        534
  88.0000        526
  88.4000        499
  88.8000        525
  89.2000        551
  89.6000        531
  90.0000        560
  90.4000        483
  90.8000        554
  91.2000        490
  91.6000        513
  92.0000        496
  92.4000        520
  92.8000        490
  93.2000        522
  93.6000        478
  94.0000        483
  94.4000        539
  94.8000        505
  95.2000        540
  95.6000        526
  96.0000        478
  96.4000        502
  96.8000        517
  97.2000        484
  97.6000        557
  98.0000        555
  98.4000        679
  98.8000       1166
  99.2000       1577
  99.6000       1221
 100.0000        831
 100.4000        635
 100.8000        556
 101.2000        519
 101.6000        555
 102.0000        517
 102.4000        520
 102.8000        507
 103.2000        539
 103.6000        497
 104.0000        527
 104.4000        476
 104.8000        509
 105.2000        521
 105.6000        477
 106.0000        500
 106.4000        529
 106.8000        511
 107.2000        508
 107.6000        504
 108.0000        517
 108.4000        485
 108.8000        462
 109.2000        569
 109.6000        531
 110.0000        466
 110.4000        500
 110.8000        514
 111.2000        522
 111.6000        530
 112.0000        509
 112.4000        492
 112.8000        467
 113.2000        529
 113.6000        524
 114.0000        494
 114.4000        519
 114.8000        485
 115.2000        499
 115.6000        540
 116.0000        465
 116.4000        550
 116.8000        511
 117.2000        472
 117.6000        476
 118.0000        496
 118.4000        522
 118.8000        512
 119.2000        506
 119.6000        497
 120.0000        493
 120.4000        502
 120.8000        516
 121.2000        488
 121.6000        522
 122.0000        516
 122.4000        445
 122.8000        530
 123.2000        553
 123.6000        550
 124.0000        532
 124.4000        519
 124.8000        489
 125.2000        486
 125.6000        505
 126.0000        514
 126.4000        511
 126.8000        495
 127.2000        517
 127.6000        452
 128.0000        477
 128.4000        488
 128.8000        491
 129.2000        527
 129.6000        503
 130.0000        555

; Data for range 2
_DRIVE = COUPLED
_STEPTIME = 0.2
_STEPSIZE = 0.1
_STEPMODE = C
_START = 40
_THETA = 20
_2THETA = 40
_KHI = 10.5
_PHI = 60
_X = 0
_Y = -25
_Z = 0
_DETECTOR = 1
; Detector type : Scintillation counter
_HV = 687
_GAIN = 80
_LLD = 0.69
_ULD = 1.866
_DETECTORSLIT = unkn
_AUX1 = 0
_AUX2 = 0
_AUX3 = 0
_TIMESTARTED = 225
_TEMP_RATE = -1
_TEMP_DELAY = -1
_KV = 35
_MA = 40
_RANGE_WL = 1.78897
_3DPLANE = 0
_V4_ADDITIONALDETECTOR = 0
_V4_D8_DIBNUM = 1
_V4_DETECTORNAME = "Detector 1"
_V4_TTLDETECTOR = None
_V4_DETECTORTYPE = 1
_V4_DETECTORFLAGS = 524545
_V4_DETECTORHV = 687
_V4_DETECTORGAIN = 80
_V4_DETECTORLLD1 = 0.69
_V4_DETECTORWW1 = 1.176
_V4_DETECTORLLD2 = 0
_V4_DETECTORWW2 = 0
_V4_DETECTORPS = 0
_V4_DETECTORDT = 0
_V4_DETECTORPILEUPTIME = 0
_V4_COUNTERS_MASK = 1
[...]
  60.8000        193
  61.2000        218
  61.6000        202
  62.0000        231
  62.4000        209
  62.8000        200
  63.2000        195
  63.6000        233
  64.0000        200
  64.4000        201
  64.8000        214
  65.2000        219
  65.6000        202
  66.0000        214
  66.4000        217
  66.8000        257
  67.2000        193
  67.6000        237
  68.0000        236
  68.4000        213
  68.8000        209
  69.2000        234
  69.6000        233
  70.0000        237
  70.4000        246
  70.8000        236
  71.2000        231
  71.6000        234
  72.0000        222
  72.4000        250
  72.8000        237
  73.2000        213
  73.6000        242
  74.0000        224
  74.4000        247
  74.8000        271
  75.2000        282
  75.6000        267
  76.0000        270
  76.4000        275
  76.8000        343
  77.2000        305
  77.6000        277
  78.0000        260
  78.4000        249
  78.8000        244
  79.2000        269
  79.6000        267
  80.0000        252
  80.4000        239
  80.8000        285
  81.2000        254
  81.6000        248
  82.0000        229
  82.4000        260
  82.8000        262
  83.2000        302
  83.6000        268
  84.0000        255
  84.4000        266
  84.8000        268
  85.2000        251
  85.6000        281
  86.0000        253
  86.4000        260
  86.8000        294
  87.2000        286
  87.6000        296
  88.0000        262
  88.4000        308
  88.8000        282
  89.2000        302
  89.6000        319
  90.0000        294
  90.4000        321
  90.8000        271
  91.2000        272
  91.6000        291
  92.0000        291
  92.4000        327
  92.8000        332
  93.2000        299
  93.6000        292
  94.0000        269
  94.4000        290
  94.8000        303
  95.2000        319
  95.6000        330
  96.0000        310
  96.4000        321
  96.8000        326
  97.2000        355
  97.6000        324
  98.0000        346
  98.4000        451
  98.8000        495
  99.2000        578
  99.6000        544
 100.0000        463
 100.4000        398
 100.8000        313
 101.2000        337
 101.6000        328
 102.0000        336
 102.4000        371
 102.8000        344
 103.2000        335
 103.6000        343
 104.0000        328
 104.4000        314
 104.8000        334
 105.2000        347
 105.6000        380
 106.0000        332
 106.4000        357
 106.8000        339
 107.2000        328
 107.6000        334
 108.0000        394
 108.4000        340
 108.8000        358
 109.2000        373
 109.6000        332
 110.0000        366
 110.4000        355
 110.8000        337
 111.2000        333
 111.6000        405
 112.0000        373
 112.4000        353
 112.8000        381
 113.2000        408
 113.6000        377
 114.0000        374
 114.4000        375
 114.8000        366
 115.2000        373
 115.6000        383
 116.0000        358
 116.4000        371
 116.8000        390
 117.2000        429
 117.6000        390
 118.0000        422
 118.4000        372
 118.8000        388
 119.2000        412
 119.6000        371
 120.0000        420
 120.4000        394
 120.8000        414
 121.2000        426
 121.6000        412
 122.0000        412
 122.4000        437
 122.8000        499
 123.2000        530
 123.6000        480
 124.0000        498
 124.4000        463
 124.8000        413
 125.2000        408
 125.6000        421
 126.0000        425
 126.4000        377
 126.8000        418
 127.2000        413
 127.6000        407
 128.0000        415
 128.4000        405
 128.8000        406
 129.2000        403
 129.6000        390
 130.0000        443