Folder: sw/exp_dat/old/exp_2013_11_06

File: 00pct_180L.uxd
; (content of file C:\DIFFDAT1\GIFT\MDL\Seawoong Lee\20131104_MV8\equal_area_maxkhi080_n8_2th40_130_x-25y-25_180L.raw)
_FILEVERSION = 3
_SAMPLE =
_+SAMPLE =
_SITE = Korea
_USER = Admin
_GONIOMETER_CODE = 20
; Goniometer : D8 theta/2theta, stage : Unknown
_SAMPLE_CHANGER_CODE = 0
_ATTACHMENTS_CODE = 0
_GONIOMETER_RADIUS = 300
_FIXED_DIVSLIT = 1
_FIXED_SAMPLESLIT = 0
_SOLLER_SLITS = 2
_FIXED_DETSLIT = 0.1
_MONOCHROMATOR = 0
; Incident beam monochromator : None
_SOLLER_SLITS_2 = 2
_THIN_FILM = N
_BETA_FILTER = Y
_FIXED_ANTISLIT = 0.6
_ANALYZER_CODE = 0
; Received beam analyzer : None
_DATEMEASURED = "06-Nov-2013 06:37:09"
_WL_UNIT = A
_WL1 = 1.78897
_WL2 = 1.79285
_WL3 = 1.62079
_WLRATIO = 0.5
_ANODE = Co
_V4_INF_CREATOR = XRDWizard
_V4_INF_CREATOR_VERSION = V2.9.0.22
_V4_INF_WIZARD_VERSION = V2.9.0.22
_V4_INF_WIZARD_ADDINS = V2.9.0.22
_V4_INF_WIZARD_DOCTYPE = XRD
_V4_INF_OSUSER = Postech
_V4_INF_USER = Admin
_V4_INF_SITE = Korea

; Data for range 1
_DRIVE = COUPLED
_STEPTIME = 0.2
_STEPSIZE = 0.1
_STEPMODE = C
_START = 40
_THETA = 20
_2THETA = 40
_KHI = 0
_PHI = 0
_X = -25
_Y = -25
_Z = 0
_DETECTOR = 1
; Detector type : Scintillation counter
_HV = 687
_GAIN = 80
_LLD = 0.69
_ULD = 1.866
_DETECTORSLIT = unkn
_AUX1 = 0
_AUX2 = 0
_AUX3 = 0
_TIMESTARTED = 28
_TEMP_RATE = -1
_TEMP_DELAY = -1
_KV = 35
_MA = 40
_RANGE_WL = 1.78897
_3DPLANE = 0
_V4_ADDITIONALDETECTOR = 0
_V4_D8_DIBNUM = 1
_V4_DETECTORNAME = "Detector 1"
_V4_TTLDETECTOR = None
_V4_DETECTORTYPE = 1
_V4_DETECTORFLAGS = 524545
_V4_DETECTORHV = 687
_V4_DETECTORGAIN = 80
_V4_DETECTORLLD1 = 0.69
_V4_DETECTORWW1 = 1.176
_V4_DETECTORLLD2 = 0
_V4_DETECTORWW2 = 0
_V4_DETECTORPS = 0
_V4_DETECTORDT = 0
_V4_DETECTORPILEUPTIME = 0
_V4_COUNTERS_MASK = 1
_V4_DRIVES_MASK = 0
_V4_ENCODERS_MASK = 0
_2THETACOUNTS = 1
; 2THETA  Cnt1_D1
  40.0000        516
  40.4000        551
  40.8000        494
  41.2000        542
  41.6000        525
  42.0000        521
  42.4000        528
  42.8000        517
  43.2000        538
  43.6000        504
  44.0000        508
  44.4000        480
  44.8000        541
  45.2000        489
  45.6000        538
  46.0000        522
  46.4000        526
  46.8000        527
  47.2000        539
  47.6000        507
  48.0000        528
  48.4000        520
  48.8000        574
  49.2000        524
  49.6000        510
  50.0000        536
  50.4000        572
  50.8000        656
  51.2000        621
  51.6000        725
  52.0000       1362
  52.4000       1347
  52.8000        618
  53.2000        503
  53.6000        537
  54.0000        492
  54.4000        537
  54.8000        522
  55.2000        557
  55.6000        534
  56.0000        495
  56.4000        503
  56.8000        543
  57.2000        519
  57.6000        538
  58.0000        571
  58.4000        506
  58.8000        537
  59.2000        559
  59.6000        563
  60.0000        548
  60.4000        531
  60.8000        521
  61.2000        523
  61.6000        536
  62.0000        532
  62.4000        508
  62.8000        519
  63.2000        511
  63.6000        506
  64.0000        506
  64.4000        531
  64.8000        512
  65.2000        534
  65.6000        522
  66.0000        525
  66.4000        532
  66.8000        510
  67.2000        485
  67.6000        517
  68.0000        511
  68.4000        524
  68.8000        470
  69.2000        522
  69.6000        468
  70.0000        515
  70.4000        532
  70.8000        526
  71.2000        497
  71.6000        488
  72.0000        573
  72.4000        496
  72.8000        511
  73.2000        487
  73.6000        530
  74.0000        532
  74.4000        531
  74.8000        525
  75.2000        520
  75.6000        506
  76.0000        531
  76.4000        725
  76.8000        993
  77.2000        980
  77.6000        586
  78.0000        520
  78.4000        549
  78.8000        516
  79.2000        525
  79.6000        493
  80.0000        508
  80.4000        531
  80.8000        535
  81.2000        490
  81.6000        485
  82.0000        495
  82.4000        516
  82.8000        519
  83.2000        498
  83.6000        558
  84.0000        514
  84.4000        527
  84.8000        562
  85.2000        483
  85.6000        519
  86.0000        513
  86.4000        482
  86.8000        568
  87.2000        508
  87.6000        497
  88.0000        581
  88.4000        536
  88.8000        600
  89.2000        633
  89.6000        628
  90.0000        591
  90.4000        550
  90.8000        529
  91.2000        482
  91.6000        511
  92.0000        519
  92.4000        547
  92.8000        512
  93.2000        506
  93.6000        506
  94.0000        520
  94.4000        511
  94.8000        511
  95.2000        501
  95.6000        519
  96.0000        514
  96.4000        503
  96.8000        470
  97.2000        527
  97.6000        537
  98.0000        512
  98.4000        512
  98.8000        790
  99.2000       1333
  99.6000       1155
 100.0000        737
 100.4000        541
 100.8000        521
 101.2000        507
 101.6000        515
 102.0000        539
 102.4000        539
 102.8000        535
 103.2000        531
 103.6000        524
 104.0000        479
 104.4000        535
 104.8000        543
 105.2000        496
 105.6000        532
 106.0000        494
 106.4000        514
 106.8000        485
 107.2000        544
 107.6000        469
 108.0000        493
 108.4000        512
 108.8000        511
 109.2000        505
 109.6000        518
 110.0000        477
 110.4000        596
 110.8000        627
 111.2000        578
 111.6000        522
 112.0000        489
 112.4000        520
 112.8000        559
 113.2000        513
 113.6000        493
 114.0000        543
 114.4000        499
 114.8000        529
 115.2000        511
 115.6000        474
 116.0000        529
 116.4000        510
 116.8000        534
 117.2000        509
 117.6000        505
 118.0000        481
 118.4000        495
 118.8000        539
 119.2000        481
 119.6000        541
 120.0000        490
 120.4000        484
 120.8000        544
 121.2000        541
 121.6000        542
 122.0000        524
 122.4000        528
 122.8000        559
 123.2000        602
 123.6000        630
 124.0000        565
 124.4000        497
 124.8000        539
 125.2000        531
 125.6000        510
 126.0000        489
 126.4000        514
 126.8000        502
 127.2000        504
 127.6000        549
 128.0000        525
 128.4000        540
 128.8000        517
 129.2000        534
 129.6000        523
 130.0000        540

; Data for range 2
_DRIVE = COUPLED
_STEPTIME = 0.2
_STEPSIZE = 0.1
_STEPMODE = C
_START = 40
_THETA = 20
_2THETA = 40
_KHI = 10.5
_PHI = 60
_X = -25
_Y = -25
_Z = 0
_DETECTOR = 1
; Detector type : Scintillation counter
_HV = 687
_GAIN = 80
_LLD = 0.69
_ULD = 1.866
_DETECTORSLIT = unkn
_AUX1 = 0
_AUX2 = 0
_AUX3 = 0
_TIMESTARTED = 225
_TEMP_RATE = -1
_TEMP_DELAY = -1
_KV = 35
_MA = 40
_RANGE_WL = 1.78897
_3DPLANE = 0
_V4_ADDITIONALDETECTOR = 0
_V4_D8_DIBNUM = 1
_V4_DETECTORNAME = "Detector 1"
_V4_TTLDETECTOR = None
_V4_DETECTORTYPE = 1
_V4_DETECTORFLAGS = 524545
_V4_DETECTORHV = 687
_V4_DETECTORGAIN = 80
_V4_DETECTORLLD1 = 0.69
_V4_DETECTORWW1 = 1.176
_V4_DETECTORLLD2 = 0
_V4_DETECTORWW2 = 0
_V4_DETECTORPS = 0
_V4_DETECTORDT = 0
_V4_DETECTORPILEUPTIME = 0
[...]
  60.8000        241
  61.2000        244
  61.6000        205
  62.0000        235
  62.4000        244
  62.8000        234
  63.2000        229
  63.6000        198
  64.0000        222
  64.4000        239
  64.8000        221
  65.2000        240
  65.6000        250
  66.0000        217
  66.4000        221
  66.8000        214
  67.2000        257
  67.6000        266
  68.0000        246
  68.4000        244
  68.8000        264
  69.2000        224
  69.6000        240
  70.0000        251
  70.4000        276
  70.8000        232
  71.2000        250
  71.6000        278
  72.0000        235
  72.4000        268
  72.8000        240
  73.2000        232
  73.6000        279
  74.0000        254
  74.4000        278
  74.8000        292
  75.2000        272
  75.6000        296
  76.0000        277
  76.4000        259
  76.8000        285
  77.2000        336
  77.6000        336
  78.0000        272
  78.4000        283
  78.8000        288
  79.2000        283
  79.6000        293
  80.0000        267
  80.4000        280
  80.8000        272
  81.2000        275
  81.6000        296
  82.0000        308
  82.4000        283
  82.8000        279
  83.2000        297
  83.6000        291
  84.0000        282
  84.4000        289
  84.8000        331
  85.2000        324
  85.6000        302
  86.0000        312
  86.4000        326
  86.8000        327
  87.2000        297
  87.6000        335
  88.0000        318
  88.4000        320
  88.8000        288
  89.2000        366
  89.6000        324
  90.0000        314
  90.4000        295
  90.8000        328
  91.2000        319
  91.6000        338
  92.0000        323
  92.4000        299
  92.8000        310
  93.2000        343
  93.6000        314
  94.0000        334
  94.4000        279
  94.8000        332
  95.2000        326
  95.6000        317
  96.0000        316
  96.4000        341
  96.8000        344
  97.2000        333
  97.6000        340
  98.0000        333
  98.4000        406
  98.8000        455
  99.2000        545
  99.6000        502
 100.0000        531
 100.4000        477
 100.8000        355
 101.2000        386
 101.6000        376
 102.0000        326
 102.4000        343
 102.8000        366
 103.2000        329
 103.6000        343
 104.0000        354
 104.4000        358
 104.8000        312
 105.2000        359
 105.6000        343
 106.0000        320
 106.4000        346
 106.8000        323
 107.2000        379
 107.6000        347
 108.0000        352
 108.4000        360
 108.8000        348
 109.2000        363
 109.6000        347
 110.0000        397
 110.4000        399
 110.8000        383
 111.2000        365
 111.6000        355
 112.0000        374
 112.4000        378
 112.8000        356
 113.2000        354
 113.6000        351
 114.0000        356
 114.4000        408
 114.8000        362
 115.2000        371
 115.6000        383
 116.0000        370
 116.4000        352
 116.8000        346
 117.2000        361
 117.6000        337
 118.0000        378
 118.4000        357
 118.8000        373
 119.2000        422
 119.6000        374
 120.0000        361
 120.4000        335
 120.8000        375
 121.2000        376
 121.6000        390
 122.0000        391
 122.4000        395
 122.8000        454
 123.2000        507
 123.6000        560
 124.0000        490
 124.4000        496
 124.8000        429
 125.2000        387
 125.6000        369
 126.0000        367
 126.4000        345
 126.8000        373
 127.2000        367
 127.6000        364
 128.0000        333
 128.4000        373
 128.8000        370
 129.2000        380
 129.6000        384
 130.0000        355

File: 02pct_150L.uxd
; (content of file C:\DIFFDAT1\GIFT\MDL\Seawoong Lee\20131104_MV8\equal_area_maxkhi080_n8_2th40_130_x00y00_150L.raw)
_FILEVERSION = 3
_SAMPLE =
_+SAMPLE =
_SITE = Korea
_USER = Admin
_GONIOMETER_CODE = 20
; Goniometer : D8 theta/2theta, stage : Unknown
_SAMPLE_CHANGER_CODE = 0
_ATTACHMENTS_CODE = 0
_GONIOMETER_RADIUS = 300
_FIXED_DIVSLIT = 1
_FIXED_SAMPLESLIT = 0
_SOLLER_SLITS = 2
_FIXED_DETSLIT = 0.1
_MONOCHROMATOR = 0
; Incident beam monochromator : None
_SOLLER_SLITS_2 = 2
_THIN_FILM = N
_BETA_FILTER = Y
_FIXED_ANTISLIT = 0.6
_ANALYZER_CODE = 0
; Received beam analyzer : None
_DATEMEASURED = "06-Nov-2013 00:47:52"
_WL_UNIT = A
_WL1 = 1.78897
_WL2 = 1.79285
_WL3 = 1.62079
_WLRATIO = 0.5
_ANODE = Co
_V4_INF_CREATOR = XRDWizard
_V4_INF_CREATOR_VERSION = V2.9.0.22
_V4_INF_WIZARD_VERSION = V2.9.0.22
_V4_INF_WIZARD_ADDINS = V2.9.0.22
_V4_INF_WIZARD_DOCTYPE = XRD
_V4_INF_OSUSER = Postech
_V4_INF_USER = Admin
_V4_INF_SITE = Korea

; Data for range 1
_DRIVE = COUPLED
_STEPTIME = 0.2
_STEPSIZE = 0.1
_STEPMODE = C
_START = 40
_THETA = 20
_2THETA = 40
_KHI = 0
_PHI = 0
_X = 0
_Y = 0
_Z = 0
_DETECTOR = 1
; Detector type : Scintillation counter
_HV = 687
_GAIN = 80
_LLD = 0.69
_ULD = 1.866
_DETECTORSLIT = unkn
_AUX1 = 0
_AUX2 = 0
_AUX3 = 0
_TIMESTARTED = 28
_TEMP_RATE = -1
_TEMP_DELAY = -1
_KV = 35
_MA = 40
_RANGE_WL = 1.78897
_3DPLANE = 0
_V4_ADDITIONALDETECTOR = 0
_V4_D8_DIBNUM = 1
_V4_DETECTORNAME = "Detector 1"
_V4_TTLDETECTOR = None
_V4_DETECTORTYPE = 1
_V4_DETECTORFLAGS = 524545
_V4_DETECTORHV = 687
_V4_DETECTORGAIN = 80
_V4_DETECTORLLD1 = 0.69
_V4_DETECTORWW1 = 1.176
_V4_DETECTORLLD2 = 0
_V4_DETECTORWW2 = 0
_V4_DETECTORPS = 0
_V4_DETECTORDT = 0
_V4_DETECTORPILEUPTIME = 0
_V4_COUNTERS_MASK = 1
_V4_DRIVES_MASK = 0
_V4_ENCODERS_MASK = 0
_2THETACOUNTS = 1
; 2THETA  Cnt1_D1
  40.0000        447
  40.4000        484
  40.8000        508
  41.2000        501
  41.6000        517
  42.0000        479
  42.4000        505
  42.8000        464
  43.2000        523
  43.6000        517
  44.0000        537
  44.4000        503
  44.8000        471
  45.2000        475
  45.6000        515
  46.0000        497
  46.4000        503
  46.8000        530
  47.2000        501
  47.6000        535
  48.0000        509
  48.4000        530
  48.8000        505
  49.2000        527
  49.6000        518
  50.0000        533
  50.4000        527
  50.8000        598
  51.2000        600
  51.6000        720
  52.0000       1321
  52.4000       1659
  52.8000        655
  53.2000        550
  53.6000        534
  54.0000        535
  54.4000        543
  54.8000        512
  55.2000        482
  55.6000        536
  56.0000        511
  56.4000        539
  56.8000        554
  57.2000        523
  57.6000        516
  58.0000        550
  58.4000        501
  58.8000        531
  59.2000        590
  59.6000        594
  60.0000        529
  60.4000        535
  60.8000        490
  61.2000        531
  61.6000        520
  62.0000        477
  62.4000        504
  62.8000        520
  63.2000        533
  63.6000        518
  64.0000        527
  64.4000        506
  64.8000        536
  65.2000        513
  65.6000        499
  66.0000        494
  66.4000        483
  66.8000        497
  67.2000        501
  67.6000        502
  68.0000        520
  68.4000        468
  68.8000        526
  69.2000        508
  69.6000        502
  70.0000        503
  70.4000        481
  70.8000        540
  71.2000        479
  71.6000        533
  72.0000        488
  72.4000        489
  72.8000        496
  73.2000        534
  73.6000        536
  74.0000        511
  74.4000        520
  74.8000        486
  75.2000        480
  75.6000        514
  76.0000        526
  76.4000        624
  76.8000        846
  77.2000        875
  77.6000        572
  78.0000        462
  78.4000        532
  78.8000        512
  79.2000        524
  79.6000        489
  80.0000        515
  80.4000        522
  80.8000        508
  81.2000        533
  81.6000        516
  82.0000        508
  82.4000        539
  82.8000        495
  83.2000        501
  83.6000        498
  84.0000        491
  84.4000        493
  84.8000        496
  85.2000        552
  85.6000        513
  86.0000        505
  86.4000        499
  86.8000        549
  87.2000        514
  87.6000        550
  88.0000        528
  88.4000        533
  88.8000        635
  89.2000        748
  89.6000        680
  90.0000        566
  90.4000        498
  90.8000        520
  91.2000        530
  91.6000        512
  92.0000        538
  92.4000        495
  92.8000        497
  93.2000        507
  93.6000        495
  94.0000        520
  94.4000        500
  94.8000        509
  95.2000        479
  95.6000        504
  96.0000        504
  96.4000        570
  96.8000        458
  97.2000        498
  97.6000        546
  98.0000        534
  98.4000        521
  98.8000        764
  99.2000       1353
  99.6000       1295
 100.0000        749
 100.4000        573
 100.8000        546
 101.2000        518
 101.6000        513
 102.0000        525
 102.4000        515
 102.8000        537
 103.2000        508
 103.6000        524
 104.0000        521
 104.4000        517
 104.8000        499
 105.2000        493
 105.6000        529
 106.0000        511
 106.4000        555
 106.8000        514
 107.2000        515
 107.6000        491
 108.0000        560
 108.4000        501
 108.8000        493
 109.2000        521
 109.6000        542
 110.0000        505
 110.4000        554
 110.8000        629
 111.2000        641
 111.6000        574
 112.0000        511
 112.4000        545
 112.8000        488
 113.2000        483
 113.6000        513
 114.0000        523
 114.4000        523
 114.8000        535
 115.2000        561
 115.6000        519
 116.0000        468
 116.4000        487
 116.8000        471
 117.2000        516
 117.6000        489
 118.0000        520
 118.4000        530
 118.8000        523
 119.2000        533
 119.6000        539
 120.0000        475
 120.4000        493
 120.8000        510
 121.2000        474
 121.6000        486
 122.0000        486
 122.4000        511
 122.8000        548
 123.2000        662
 123.6000        652
 124.0000        557
 124.4000        568
 124.8000        546
 125.2000        521
 125.6000        529
 126.0000        540
 126.4000        471
 126.8000        474
 127.2000        495
 127.6000        538
 128.0000        524
 128.4000        476
 128.8000        515
 129.2000        495
 129.6000        493
 130.0000        523

; Data for range 2
_DRIVE = COUPLED
_STEPTIME = 0.2
_STEPSIZE = 0.1
_STEPMODE = C
_START = 40
_THETA = 20
_2THETA = 40
_KHI = 10.5
_PHI = 60
_X = 0
_Y = 0
_Z = 0
_DETECTOR = 1
; Detector type : Scintillation counter
_HV = 687
_GAIN = 80
_LLD = 0.69
_ULD = 1.866
_DETECTORSLIT = unkn
_AUX1 = 0
_AUX2 = 0
_AUX3 = 0
_TIMESTARTED = 225
_TEMP_RATE = -1
_TEMP_DELAY = -1
_KV = 35
_MA = 40
_RANGE_WL = 1.78897
_3DPLANE = 0
_V4_ADDITIONALDETECTOR = 0
_V4_D8_DIBNUM = 1
_V4_DETECTORNAME = "Detector 1"
_V4_TTLDETECTOR = None
_V4_DETECTORTYPE = 1
_V4_DETECTORFLAGS = 524545
_V4_DETECTORHV = 687
_V4_DETECTORGAIN = 80
_V4_DETECTORLLD1 = 0.69
_V4_DETECTORWW1 = 1.176
_V4_DETECTORLLD2 = 0
_V4_DETECTORWW2 = 0
_V4_DETECTORPS = 0
_V4_DETECTORDT = 0
_V4_DETECTORPILEUPTIME = 0
_V4_COUNTERS_MASK = 1
[...]
  60.8000        229
  61.2000        193
  61.6000        238
  62.0000        214
  62.4000        238
  62.8000        224
  63.2000        217
  63.6000        229
  64.0000        227
  64.4000        224
  64.8000        226
  65.2000        220
  65.6000        220
  66.0000        239
  66.4000        200
  66.8000        232
  67.2000        228
  67.6000        231
  68.0000        228
  68.4000        226
  68.8000        242
  69.2000        237
  69.6000        223
  70.0000        231
  70.4000        264
  70.8000        230
  71.2000        232
  71.6000        240
  72.0000        243
  72.4000        285
  72.8000        237
  73.2000        238
  73.6000        243
  74.0000        253
  74.4000        228
  74.8000        242
  75.2000        274
  75.6000        248
  76.0000        264
  76.4000        302
  76.8000        304
  77.2000        284
  77.6000        302
  78.0000        245
  78.4000        275
  78.8000        247
  79.2000        276
  79.6000        257
  80.0000        257
  80.4000        257
  80.8000        238
  81.2000        256
  81.6000        270
  82.0000        284
  82.4000        271
  82.8000        273
  83.2000        274
  83.6000        257
  84.0000        294
  84.4000        271
  84.8000        252
  85.2000        267
  85.6000        277
  86.0000        257
  86.4000        248
  86.8000        293
  87.2000        246
  87.6000        292
  88.0000        241
  88.4000        266
  88.8000        303
  89.2000        285
  89.6000        328
  90.0000        312
  90.4000        266
  90.8000        283
  91.2000        260
  91.6000        285
  92.0000        263
  92.4000        263
  92.8000        272
  93.2000        286
  93.6000        313
  94.0000        279
  94.4000        312
  94.8000        288
  95.2000        295
  95.6000        257
  96.0000        331
  96.4000        300
  96.8000        280
  97.2000        276
  97.6000        268
  98.0000        310
  98.4000        316
  98.8000        379
  99.2000        474
  99.6000        460
 100.0000        417
 100.4000        350
 100.8000        297
 101.2000        298
 101.6000        260
 102.0000        318
 102.4000        315
 102.8000        305
 103.2000        304
 103.6000        284
 104.0000        333
 104.4000        328
 104.8000        301
 105.2000        304
 105.6000        305
 106.0000        307
 106.4000        322
 106.8000        291
 107.2000        317
 107.6000        300
 108.0000        290
 108.4000        293
 108.8000        296
 109.2000        312
 109.6000        307
 110.0000        348
 110.4000        357
 110.8000        336
 111.2000        322
 111.6000        367
 112.0000        322
 112.4000        313
 112.8000        309
 113.2000        324
 113.6000        320
 114.0000        309
 114.4000        315
 114.8000        318
 115.2000        319
 115.6000        340
 116.0000        298
 116.4000        302
 116.8000        312
 117.2000        303
 117.6000        301
 118.0000        336
 118.4000        367
 118.8000        352
 119.2000        340
 119.6000        331
 120.0000        325
 120.4000        338
 120.8000        312
 121.2000        340
 121.6000        320
 122.0000        301
 122.4000        369
 122.8000        401
 123.2000        404
 123.6000        454
 124.0000        427
 124.4000        386
 124.8000        387
 125.2000        320
 125.6000        324
 126.0000        334
 126.4000        311
 126.8000        304
 127.2000        337
 127.6000        313
 128.0000        291
 128.4000        306
 128.8000        311
 129.2000        300
 129.6000        352
 130.0000        342