Folder: sw/exp_dat/old/exp_2013_11_11 (part 13)

File: 26pct_-50L.uxd
; (content of file C:\DIFFDAT1\GIFT\MDL\Seawoong Lee\20131104_MV8\equal_area_maxkhi080_n8_2th40_130_x25y25_-50L.raw)
_FILEVERSION = 3
_SAMPLE =
_+SAMPLE =
_SITE = Korea
_USER = Admin
_GONIOMETER_CODE = 20
; Goniometer : D8 theta/2theta, stage : Unknown
_SAMPLE_CHANGER_CODE = 0
_ATTACHMENTS_CODE = 0
_GONIOMETER_RADIUS = 300
_FIXED_DIVSLIT = 1
_FIXED_SAMPLESLIT = 0
_SOLLER_SLITS = 2
_FIXED_DETSLIT = 0.1
_MONOCHROMATOR = 0
; Incident beam monochromator : None
_SOLLER_SLITS_2 = 2
_THIN_FILM = N
_BETA_FILTER = Y
_FIXED_ANTISLIT = 0.6
_ANALYZER_CODE = 0
; Received beam analyzer : None
_DATEMEASURED = "07-Nov-2013 18:30:19"
_WL_UNIT = A
_WL1 = 1.78897
_WL2 = 1.79285
_WL3 = 1.62079
_WLRATIO = 0.5
_ANODE = Co
_V4_INF_CREATOR = XRDWizard
_V4_INF_CREATOR_VERSION = V2.9.0.22
_V4_INF_WIZARD_VERSION = V2.9.0.22
_V4_INF_WIZARD_ADDINS = V2.9.0.22
_V4_INF_WIZARD_DOCTYPE = XRD
_V4_INF_OSUSER = Postech
_V4_INF_USER = Admin
_V4_INF_SITE = Korea

; Data for range 1
_DRIVE = COUPLED
_STEPTIME = 0.2
_STEPSIZE = 0.1
_STEPMODE = C
_START = 40
_THETA = 20
_2THETA = 40
_KHI = 0
_PHI = 0
_X = 25
_Y = 25
_Z = 0
_DETECTOR = 1
; Detector type : Scintillation counter
_HV = 687
_GAIN = 80
_LLD = 0.69
_ULD = 1.866
_DETECTORSLIT = unkn
_AUX1 = 0
_AUX2 = 0
_AUX3 = 0
_TIMESTARTED = 28
_TEMP_RATE = -1
_TEMP_DELAY = -1
_KV = 35
_MA = 40
_RANGE_WL = 1.78897
_3DPLANE = 0
_V4_ADDITIONALDETECTOR = 0
_V4_D8_DIBNUM = 1
_V4_DETECTORNAME = "Detector 1"
_V4_TTLDETECTOR = None
_V4_DETECTORTYPE = 1
_V4_DETECTORFLAGS = 524545
_V4_DETECTORHV = 687
_V4_DETECTORGAIN = 80
_V4_DETECTORLLD1 = 0.69
_V4_DETECTORWW1 = 1.176
_V4_DETECTORLLD2 = 0
_V4_DETECTORWW2 = 0
_V4_DETECTORPS = 0
_V4_DETECTORDT = 0
_V4_DETECTORPILEUPTIME = 0
_V4_COUNTERS_MASK = 1
_V4_DRIVES_MASK = 0
_V4_ENCODERS_MASK = 0
_2THETACOUNTS = 1
; 2THETA  Cnt1_D1
  40.0000        580
  40.4000        526
  40.8000        474
  41.2000        527
  41.6000        496
  42.0000        509
  42.4000        555
  42.8000        593
  43.2000        559
  43.6000        567
  44.0000        552
  44.4000        556
  44.8000        521
  45.2000        548
  45.6000        521
  46.0000        516
  46.4000        567
  46.8000        555
  47.2000        507
  47.6000        522
  48.0000        511
  48.4000        576
  48.8000        564
  49.2000        529
  49.6000        566
  50.0000        518
  50.4000        509
  50.8000        558
  51.2000        585
  51.6000        783
  52.0000       1546
  52.4000       1571
  52.8000        646
  53.2000        589
  53.6000        507
  54.0000        528
  54.4000        523
  54.8000        543
  55.2000        530
  55.6000        546
  56.0000        522
  56.4000        512
  56.8000        520
  57.2000        524
  57.6000        530
  58.0000        545
  58.4000        517
  58.8000        549
  59.2000        546
  59.6000        568
  60.0000        567
  60.4000        534
  60.8000        536
  61.2000        550
  61.6000        478
  62.0000        531
  62.4000        529
  62.8000        545
  63.2000        522
  63.6000        518
  64.0000        523
  64.4000        484
  64.8000        526
  65.2000        544
  65.6000        538
  66.0000        533
  66.4000        536
  66.8000        555
  67.2000        515
  67.6000        525
  68.0000        542
  68.4000        527
  68.8000        518
  69.2000        479
  69.6000        522
  70.0000        524
  70.4000        508
  70.8000        525
  71.2000        537
  71.6000        559
  72.0000        533
  72.4000        499
  72.8000        513
  73.2000        527
  73.6000        534
  74.0000        498
  74.4000        526
  74.8000        510
  75.2000        518
  75.6000        525
  76.0000        545
  76.4000        776
  76.8000       1072
  77.2000        977
  77.6000        624
  78.0000        557
  78.4000        531
  78.8000        502
  79.2000        514
  79.6000        523
  80.0000        523
  80.4000        545
  80.8000        525
  81.2000        523
  81.6000        541
  82.0000        514
  82.4000        531
  82.8000        521
  83.2000        485
  83.6000        527
  84.0000        513
  84.4000        496
  84.8000        539
  85.2000        494
  85.6000        491
  86.0000        514
  86.4000        518
  86.8000        519
  87.2000        532
  87.6000        551
  88.0000        564
  88.4000        517
  88.8000        506
  89.2000        539
  89.6000        528
  90.0000        521
  90.4000        537
  90.8000        542
  91.2000        521
  91.6000        541
  92.0000        524
  92.4000        513
  92.8000        535
  93.2000        471
  93.6000        551
  94.0000        510
  94.4000        492
  94.8000        536
  95.2000        508
  95.6000        523
  96.0000        494
  96.4000        478
  96.8000        527
  97.2000        530
  97.6000        516
  98.0000        560
  98.4000        599
  98.8000        942
  99.2000       1441
  99.6000       1355
 100.0000        770
 100.4000        568
 100.8000        549
 101.2000        571
 101.6000        537
 102.0000        552
 102.4000        477
 102.8000        514
 103.2000        532
 103.6000        500
 104.0000        528
 104.4000        522
 104.8000        534
 105.2000        509
 105.6000        519
 106.0000        536
 106.4000        485
 106.8000        480
 107.2000        495
 107.6000        520
 108.0000        536
 108.4000        529
 108.8000        526
 109.2000        527
 109.6000        506
 110.0000        520
 110.4000        486
 110.8000        542
 111.2000        539
 111.6000        538
 112.0000        518
 112.4000        525
 112.8000        516
 113.2000        506
 113.6000        513
 114.0000        519
 114.4000        502
 114.8000        516
 115.2000        533
 115.6000        484
 116.0000        512
 116.4000        538
 116.8000        525
 117.2000        451
 117.6000        523
 118.0000        532
 118.4000        511
 118.8000        525
 119.2000        480
 119.6000        516
 120.0000        550
 120.4000        470
 120.8000        516
 121.2000        552
 121.6000        498
 122.0000        515
 122.4000        535
 122.8000        550
 123.2000        623
 123.6000        607
 124.0000        592
 124.4000        477
 124.8000        485
 125.2000        533
 125.6000        538
 126.0000        536
 126.4000        484
 126.8000        548
 127.2000        510
 127.6000        507
 128.0000        527
 128.4000        503
 128.8000        502
 129.2000        484
 129.6000        505
 130.0000        494

; Data for range 2
_DRIVE = COUPLED
_STEPTIME = 0.2
_STEPSIZE = 0.1
_STEPMODE = C
_START = 40
_THETA = 20
_2THETA = 40
_KHI = 10.5
_PHI = 60
_X = 25
_Y = 25
_Z = 0
_DETECTOR = 1
; Detector type : Scintillation counter
_HV = 687
_GAIN = 80
_LLD = 0.69
_ULD = 1.866
_DETECTORSLIT = unkn
_AUX1 = 0
_AUX2 = 0
_AUX3 = 0
_TIMESTARTED = 225
_TEMP_RATE = -1
_TEMP_DELAY = -1
_KV = 35
_MA = 40
_RANGE_WL = 1.78897
_3DPLANE = 0
_V4_ADDITIONALDETECTOR = 0
_V4_D8_DIBNUM = 1
_V4_DETECTORNAME = "Detector 1"
_V4_TTLDETECTOR = None
_V4_DETECTORTYPE = 1
_V4_DETECTORFLAGS = 524545
_V4_DETECTORHV = 687
_V4_DETECTORGAIN = 80
_V4_DETECTORLLD1 = 0.69
_V4_DETECTORWW1 = 1.176
_V4_DETECTORLLD2 = 0
_V4_DETECTORWW2 = 0
_V4_DETECTORPS = 0
_V4_DETECTORDT = 0
_V4_DETECTORPILEUPTIME = 0
_V4_COUNTERS_MASK = 1
[...]
  60.8000        227
  61.2000        237
  61.6000        266
  62.0000        228
  62.4000        243
  62.8000        244
  63.2000        258
  63.6000        235
  64.0000        271
  64.4000        256
  64.8000        276
  65.2000        243
  65.6000        276
  66.0000        292
  66.4000        247
  66.8000        291
  67.2000        284
  67.6000        294
  68.0000        270
  68.4000        274
  68.8000        283
  69.2000        282
  69.6000        253
  70.0000        297
  70.4000        282
  70.8000        278
  71.2000        271
  71.6000        256
  72.0000        279
  72.4000        264
  72.8000        289
  73.2000        297
  73.6000        311
  74.0000        300
  74.4000        293
  74.8000        341
  75.2000        299
  75.6000        334
  76.0000        319
  76.4000        332
  76.8000        393
  77.2000        399
  77.6000        344
  78.0000        338
  78.4000        318
  78.8000        336
  79.2000        330
  79.6000        304
  80.0000        333
  80.4000        339
  80.8000        302
  81.2000        322
  81.6000        352
  82.0000        332
  82.4000        329
  82.8000        309
  83.2000        315
  83.6000        330
  84.0000        335
  84.4000        331
  84.8000        323
  85.2000        340
  85.6000        333
  86.0000        311
  86.4000        357
  86.8000        331
  87.2000        356
  87.6000        331
  88.0000        313
  88.4000        358
  88.8000        363
  89.2000        350
  89.6000        337
  90.0000        370
  90.4000        374
  90.8000        366
  91.2000        347
  91.6000        392
  92.0000        370
  92.4000        337
  92.8000        333
  93.2000        343
  93.6000        371
  94.0000        342
  94.4000        331
  94.8000        347
  95.2000        359
  95.6000        337
  96.0000        337
  96.4000        335
  96.8000        371
  97.2000        367
  97.6000        366
  98.0000        430
  98.4000        489
  98.8000        564
  99.2000        587
  99.6000        560
 100.0000        520
 100.4000        443
 100.8000        382
 101.2000        379
 101.6000        396
 102.0000        385
 102.4000        377
 102.8000        388
 103.2000        386
 103.6000        367
 104.0000        412
 104.4000        356
 104.8000        371
 105.2000        383
 105.6000        363
 106.0000        368
 106.4000        363
 106.8000        402
 107.2000        349
 107.6000        373
 108.0000        384
 108.4000        349
 108.8000        388
 109.2000        401
 109.6000        404
 110.0000        435
 110.4000        366
 110.8000        395
 111.2000        395
 111.6000        390
 112.0000        396
 112.4000        387
 112.8000        374
 113.2000        403
 113.6000        406
 114.0000        363
 114.4000        379
 114.8000        343
 115.2000        360
 115.6000        391
 116.0000        339
 116.4000        368
 116.8000        367
 117.2000        383
 117.6000        384
 118.0000        371
 118.4000        360
 118.8000        384
 119.2000        385
 119.6000        389
 120.0000        391
 120.4000        390
 120.8000        373
 121.2000        396
 121.6000        411
 122.0000        403
 122.4000        465
 122.8000        491
 123.2000        521
 123.6000        463
 124.0000        473
 124.4000        383
 124.8000        376
 125.2000        427
 125.6000        363
 126.0000        407
 126.4000        434
 126.8000        392
 127.2000        359
 127.6000        385
 128.0000        390
 128.4000        388
 128.8000        390
 129.2000        371
 129.6000        381
 130.0000        413

File: 27pct_-50G.uxd
; (content of file C:\DIFFDAT1\GIFT\MDL\Seawoong Lee\20131104_MV8\equal_area_maxkhi080_n8_2th40_130_x00y-25_-50g.raw)
_FILEVERSION = 3
_SAMPLE =
_+SAMPLE =
_SITE = Korea
_USER = Admin
_GONIOMETER_CODE = 20
; Goniometer : D8 theta/2theta, stage : Unknown
_SAMPLE_CHANGER_CODE = 0
_ATTACHMENTS_CODE = 0
_GONIOMETER_RADIUS = 300
_FIXED_DIVSLIT = 1
_FIXED_SAMPLESLIT = 0
_SOLLER_SLITS = 2
_FIXED_DETSLIT = 0.1
_MONOCHROMATOR = 0
; Incident beam monochromator : None
_SOLLER_SLITS_2 = 2
_THIN_FILM = N
_BETA_FILTER = Y
_FIXED_ANTISLIT = 0.6
_ANALYZER_CODE = 0
; Received beam analyzer : None
_DATEMEASURED = "07-Nov-2013 21:24:56"
_WL_UNIT = A
_WL1 = 1.78897
_WL2 = 1.79285
_WL3 = 1.62079
_WLRATIO = 0.5
_ANODE = Co
_V4_INF_CREATOR = XRDWizard
_V4_INF_CREATOR_VERSION = V2.9.0.22
_V4_INF_WIZARD_VERSION = V2.9.0.22
_V4_INF_WIZARD_ADDINS = V2.9.0.22
_V4_INF_WIZARD_DOCTYPE = XRD
_V4_INF_OSUSER = Postech
_V4_INF_USER = Admin
_V4_INF_SITE = Korea

; Data for range 1
_DRIVE = COUPLED
_STEPTIME = 0.2
_STEPSIZE = 0.1
_STEPMODE = C
_START = 40
_THETA = 20
_2THETA = 40
_KHI = 0
_PHI = 0
_X = 0
_Y = -25
_Z = 0
_DETECTOR = 1
; Detector type : Scintillation counter
_HV = 687
_GAIN = 80
_LLD = 0.69
_ULD = 1.866
_DETECTORSLIT = unkn
_AUX1 = 0
_AUX2 = 0
_AUX3 = 0
_TIMESTARTED = 28
_TEMP_RATE = -1
_TEMP_DELAY = -1
_KV = 35
_MA = 40
_RANGE_WL = 1.78897
_3DPLANE = 0
_V4_ADDITIONALDETECTOR = 0
_V4_D8_DIBNUM = 1
_V4_DETECTORNAME = "Detector 1"
_V4_TTLDETECTOR = None
_V4_DETECTORTYPE = 1
_V4_DETECTORFLAGS = 524545
_V4_DETECTORHV = 687
_V4_DETECTORGAIN = 80
_V4_DETECTORLLD1 = 0.69
_V4_DETECTORWW1 = 1.176
_V4_DETECTORLLD2 = 0
_V4_DETECTORWW2 = 0
_V4_DETECTORPS = 0
_V4_DETECTORDT = 0
_V4_DETECTORPILEUPTIME = 0
_V4_COUNTERS_MASK = 1
_V4_DRIVES_MASK = 0
_V4_ENCODERS_MASK = 0
_2THETACOUNTS = 1
; 2THETA  Cnt1_D1
  40.0000        459
  40.4000        442
  40.8000        458
  41.2000        417
  41.6000        475
  42.0000        440
  42.4000        477
  42.8000        458
  43.2000        427
  43.6000        443
  44.0000        457
  44.4000        486
  44.8000        446
  45.2000        466
  45.6000        478
  46.0000        495
  46.4000        508
  46.8000        513
  47.2000        510
  47.6000        456
  48.0000        460
  48.4000        490
  48.8000        451
  49.2000        446
  49.6000        518
  50.0000        490
  50.4000        510
  50.8000        559
  51.2000        527
  51.6000        717
  52.0000       1125
  52.4000       1097
  52.8000        633
  53.2000        520
  53.6000        485
  54.0000        539
  54.4000        512
  54.8000        499
  55.2000        515
  55.6000        522
  56.0000        488
  56.4000        514
  56.8000        512
  57.2000        514
  57.6000        538
  58.0000        545
  58.4000        488
  58.8000        530
  59.2000        527
  59.6000        513
  60.0000        541
  60.4000        531
  60.8000        535
  61.2000        515
  61.6000        515
  62.0000        550
  62.4000        500
  62.8000        527
  63.2000        518
  63.6000        518
  64.0000        511
  64.4000        541
  64.8000        536
  65.2000        515
  65.6000        501
  66.0000        523
  66.4000        489
  66.8000        469
  67.2000        558
  67.6000        506
  68.0000        517
  68.4000        560
  68.8000        549
  69.2000        548
  69.6000        484
  70.0000        535
  70.4000        495
  70.8000        517
  71.2000        518
  71.6000        565
  72.0000        521
  72.4000        487
  72.8000        536
  73.2000        513
  73.6000        551
  74.0000        469
  74.4000        479
  74.8000        544
  75.2000        513
  75.6000        530
  76.0000        615
  76.4000        916
  76.8000       1147
  77.2000        874
  77.6000        589
  78.0000        555
  78.4000        540
  78.8000        563
  79.2000        527
  79.6000        526
  80.0000        487
  80.4000        506
  80.8000        465
  81.2000        535
  81.6000        516
  82.0000        541
  82.4000        508
  82.8000        518
  83.2000        485
  83.6000        560
  84.0000        511
  84.4000        507
  84.8000        522
  85.2000        573
  85.6000        514
  86.0000        485
  86.4000        537
  86.8000        484
  87.2000        524
  87.6000        528
  88.0000        517
  88.4000        545
  88.8000        498
  89.2000        499
  89.6000        504
  90.0000        535
  90.4000        539
  90.8000        525
  91.2000        499
  91.6000        519
  92.0000        519
  92.4000        535
  92.8000        512
  93.2000        529
  93.6000        497
  94.0000        532
  94.4000        521
  94.8000        537
  95.2000        519
  95.6000        538
  96.0000        519
  96.4000        525
  96.8000        537
  97.2000        561
  97.6000        576
  98.0000        587
  98.4000        683
  98.8000       1216
  99.2000       1589
  99.6000       1311
 100.0000        764
 100.4000        621
 100.8000        589
 101.2000        504
 101.6000        515
 102.0000        493
 102.4000        540
 102.8000        462
 103.2000        505
 103.6000        525
 104.0000        501
 104.4000        540
 104.8000        527
 105.2000        523
 105.6000        535
 106.0000        515
 106.4000        473
 106.8000        559
 107.2000        506
 107.6000        467
 108.0000        541
 108.4000        500
 108.8000        529
 109.2000        516
 109.6000        503
 110.0000        514
 110.4000        486
 110.8000        527
 111.2000        507
 111.6000        544
 112.0000        521
 112.4000        538
 112.8000        478
 113.2000        479
 113.6000        540
 114.0000        536
 114.4000        508
 114.8000        509
 115.2000        513
 115.6000        469
 116.0000        492
 116.4000        523
 116.8000        537
 117.2000        541
 117.6000        507
 118.0000        506
 118.4000        534
 118.8000        473
 119.2000        507
 119.6000        556
 120.0000        509
 120.4000        496
 120.8000        558
 121.2000        515
 121.6000        523
 122.0000        515
 122.4000        522
 122.8000        568
 123.2000        582
 123.6000        551
 124.0000        519
 124.4000        539
 124.8000        546
 125.2000        533
 125.6000        516
 126.0000        539
 126.4000        509
 126.8000        499
 127.2000        500
 127.6000        506
 128.0000        496
 128.4000        531
 128.8000        521
 129.2000        535
 129.6000        536
 130.0000        546

; Data for range 2
_DRIVE = COUPLED
_STEPTIME = 0.2
_STEPSIZE = 0.1
_STEPMODE = C
_START = 40
_THETA = 20
_2THETA = 40
_KHI = 10.5
_PHI = 60
_X = 0
_Y = -25
_Z = 0
_DETECTOR = 1
; Detector type : Scintillation counter
_HV = 687
_GAIN = 80
_LLD = 0.69
_ULD = 1.866
_DETECTORSLIT = unkn
_AUX1 = 0
_AUX2 = 0
_AUX3 = 0
_TIMESTARTED = 225
_TEMP_RATE = -1
_TEMP_DELAY = -1
_KV = 35
_MA = 40
_RANGE_WL = 1.78897
_3DPLANE = 0
_V4_ADDITIONALDETECTOR = 0
_V4_D8_DIBNUM = 1
_V4_DETECTORNAME = "Detector 1"
_V4_TTLDETECTOR = None
_V4_DETECTORTYPE = 1
_V4_DETECTORFLAGS = 524545
_V4_DETECTORHV = 687
_V4_DETECTORGAIN = 80
_V4_DETECTORLLD1 = 0.69
_V4_DETECTORWW1 = 1.176
_V4_DETECTORLLD2 = 0
_V4_DETECTORWW2 = 0
_V4_DETECTORPS = 0
_V4_DETECTORDT = 0
_V4_DETECTORPILEUPTIME = 0
_V4_COUNTERS_MASK = 1
[...]
  60.8000        167
  61.2000        198
  61.6000        163
  62.0000        184
  62.4000        176
  62.8000        183
  63.2000        182
  63.6000        175
  64.0000        159
  64.4000        181
  64.8000        194
  65.2000        207
  65.6000        203
  66.0000        186
  66.4000        199
  66.8000        210
  67.2000        201
  67.6000        205
  68.0000        197
  68.4000        204
  68.8000        220
  69.2000        175
  69.6000        169
  70.0000        210
  70.4000        196
  70.8000        235
  71.2000        188
  71.6000        223
  72.0000        194
  72.4000        216
  72.8000        214
  73.2000        189
  73.6000        181
  74.0000        199
  74.4000        193
  74.8000        216
  75.2000        234
  75.6000        220
  76.0000        242
  76.4000        259
  76.8000        245
  77.2000        227
  77.6000        266
  78.0000        207
  78.4000        219
  78.8000        228
  79.2000        227
  79.6000        224
  80.0000        218
  80.4000        236
  80.8000        224
  81.2000        205
  81.6000        214
  82.0000        234
  82.4000        235
  82.8000        234
  83.2000        230
  83.6000        251
  84.0000        246
  84.4000        231
  84.8000        228
  85.2000        240
  85.6000        250
  86.0000        234
  86.4000        227
  86.8000        245
  87.2000        250
  87.6000        256
  88.0000        253
  88.4000        242
  88.8000        270
  89.2000        276
  89.6000        276
  90.0000        261
  90.4000        277
  90.8000        282
  91.2000        248
  91.6000        254
  92.0000        261
  92.4000        274
  92.8000        280
  93.2000        266
  93.6000        307
  94.0000        240
  94.4000        314
  94.8000        251
  95.2000        286
  95.6000        281
  96.0000        303
  96.4000        274
  96.8000        287
  97.2000        308
  97.6000        292
  98.0000        355
  98.4000        387
  98.8000        507
  99.2000        512
  99.6000        544
 100.0000        450
 100.4000        400
 100.8000        312
 101.2000        324
 101.6000        332
 102.0000        320
 102.4000        308
 102.8000        313
 103.2000        309
 103.6000        339
 104.0000        329
 104.4000        340
 104.8000        324
 105.2000        321
 105.6000        317
 106.0000        355
 106.4000        357
 106.8000        338
 107.2000        348
 107.6000        336
 108.0000        338
 108.4000        338
 108.8000        355
 109.2000        320
 109.6000        378
 110.0000        342
 110.4000        302
 110.8000        341
 111.2000        335
 111.6000        342
 112.0000        336
 112.4000        331
 112.8000        332
 113.2000        348
 113.6000        388
 114.0000        344
 114.4000        352
 114.8000        334
 115.2000        372
 115.6000        354
 116.0000        395
 116.4000        327
 116.8000        348
 117.2000        357
 117.6000        365
 118.0000        369
 118.4000        363
 118.8000        369
 119.2000        387
 119.6000        372
 120.0000        388
 120.4000        370
 120.8000        393
 121.2000        420
 121.6000        381
 122.0000        382
 122.4000        474
 122.8000        499
 123.2000        523
 123.6000        502
 124.0000        470
 124.4000        426
 124.8000        446
 125.2000        434
 125.6000        427
 126.0000        413
 126.4000        399
 126.8000        428
 127.2000        421
 127.6000        372
 128.0000        403
 128.4000        422
 128.8000        434
 129.2000        425
 129.6000        412
 130.0000        394