Folder: sw/exp_dat/old/exp_2013_11_06_doublecheck

File: 02pct_180g.uxd
; (content of file C:\DIFFDAT1\GIFT\MDL\Seawoong Lee\20131104_MV8\equal_area_maxkhi080_n8_2th40_130_x-25y00_180g.raw)
_FILEVERSION = 3
_SAMPLE =
_+SAMPLE =
_SITE = Korea
_USER = Admin
_GONIOMETER_CODE = 20
; Goniometer : D8 theta/2theta, stage : Unknown
_SAMPLE_CHANGER_CODE = 0
_ATTACHMENTS_CODE = 0
_GONIOMETER_RADIUS = 300
_FIXED_DIVSLIT = 1
_FIXED_SAMPLESLIT = 0
_SOLLER_SLITS = 2
_FIXED_DETSLIT = 0.1
_MONOCHROMATOR = 0
; Incident beam monochromator : None
_SOLLER_SLITS_2 = 2
_THIN_FILM = N
_BETA_FILTER = Y
_FIXED_ANTISLIT = 0.6
_ANALYZER_CODE = 0
; Received beam analyzer : None
_DATEMEASURED = "06-Nov-2013 09:31:50"
_WL_UNIT = A
_WL1 = 1.78897
_WL2 = 1.79285
_WL3 = 1.62079
_WLRATIO = 0.5
_ANODE = Co
_V4_INF_CREATOR = XRDWizard
_V4_INF_CREATOR_VERSION = V2.9.0.22
_V4_INF_WIZARD_VERSION = V2.9.0.22
_V4_INF_WIZARD_ADDINS = V2.9.0.22
_V4_INF_WIZARD_DOCTYPE = XRD
_V4_INF_OSUSER = Postech
_V4_INF_USER = Admin
_V4_INF_SITE = Korea

; Data for range 1
_DRIVE = COUPLED
_STEPTIME = 0.2
_STEPSIZE = 0.1
_STEPMODE = C
_START = 40
_THETA = 20
_2THETA = 40
_KHI = 0
_PHI = 0
_X = -25
_Y = 0
_Z = 0
_DETECTOR = 1
; Detector type : Scintillation counter
_HV = 687
_GAIN = 80
_LLD = 0.69
_ULD = 1.866
_DETECTORSLIT = unkn
_AUX1 = 0
_AUX2 = 0
_AUX3 = 0
_TIMESTARTED = 28
_TEMP_RATE = -1
_TEMP_DELAY = -1
_KV = 35
_MA = 40
_RANGE_WL = 1.78897
_3DPLANE = 0
_V4_ADDITIONALDETECTOR = 0
_V4_D8_DIBNUM = 1
_V4_DETECTORNAME = "Detector 1"
_V4_TTLDETECTOR = None
_V4_DETECTORTYPE = 1
_V4_DETECTORFLAGS = 524545
_V4_DETECTORHV = 687
_V4_DETECTORGAIN = 80
_V4_DETECTORLLD1 = 0.69
_V4_DETECTORWW1 = 1.176
_V4_DETECTORLLD2 = 0
_V4_DETECTORWW2 = 0
_V4_DETECTORPS = 0
_V4_DETECTORDT = 0
_V4_DETECTORPILEUPTIME = 0
_V4_COUNTERS_MASK = 1
_V4_DRIVES_MASK = 0
_V4_ENCODERS_MASK = 0
_2THETACOUNTS = 1
; 2THETA  Cnt1_D1
  40.0000        556
  40.4000        486
  40.8000        537
  41.2000        539
  41.6000        502
  42.0000        526
  42.4000        542
  42.8000        507
  43.2000        491
  43.6000        526
  44.0000        571
  44.4000        518
  44.8000        552
  45.2000        549
  45.6000        477
  46.0000        520
  46.4000        507
  46.8000        514
  47.2000        523
  47.6000        545
  48.0000        541
  48.4000        530
  48.8000        529
  49.2000        537
  49.6000        544
  50.0000        516
  50.4000        527
  50.8000        568
  51.2000        622
  51.6000        665
  52.0000        970
  52.4000       1030
  52.8000        646
  53.2000        555
  53.6000        559
  54.0000        553
  54.4000        540
  54.8000        472
  55.2000        513
  55.6000        522
  56.0000        522
  56.4000        521
  56.8000        526
  57.2000        530
  57.6000        503
  58.0000        542
  58.4000        527
  58.8000        524
  59.2000        563
  59.6000        556
  60.0000        551
  60.4000        534
  60.8000        502
  61.2000        498
  61.6000        510
  62.0000        524
  62.4000        523
  62.8000        519
  63.2000        540
  63.6000        496
  64.0000        483
  64.4000        486
  64.8000        512
  65.2000        532
  65.6000        506
  66.0000        503
  66.4000        494
  66.8000        526
  67.2000        489
  67.6000        563
  68.0000        546
  68.4000        518
  68.8000        485
  69.2000        489
  69.6000        523
  70.0000        489
  70.4000        522
  70.8000        537
  71.2000        497
  71.6000        527
  72.0000        524
  72.4000        497
  72.8000        490
  73.2000        521
  73.6000        531
  74.0000        544
  74.4000        529
  74.8000        515
  75.2000        533
  75.6000        531
  76.0000        622
  76.4000        899
  76.8000       1184
  77.2000       1061
  77.6000        616
  78.0000        555
  78.4000        502
  78.8000        507
  79.2000        505
  79.6000        485
  80.0000        535
  80.4000        499
  80.8000        536
  81.2000        499
  81.6000        485
  82.0000        512
  82.4000        526
  82.8000        499
  83.2000        518
  83.6000        491
  84.0000        513
  84.4000        534
  84.8000        559
  85.2000        495
  85.6000        515
  86.0000        527
  86.4000        514
  86.8000        505
  87.2000        519
  87.6000        512
  88.0000        508
  88.4000        561
  88.8000        620
  89.2000        701
  89.6000        653
  90.0000        551
  90.4000        557
  90.8000        526
  91.2000        464
  91.6000        532
  92.0000        516
  92.4000        542
  92.8000        517
  93.2000        489
  93.6000        510
  94.0000        523
  94.4000        522
  94.8000        538
  95.2000        494
  95.6000        508
  96.0000        526
  96.4000        487
  96.8000        511
  97.2000        508
  97.6000        525
  98.0000        549
  98.4000        588
  98.8000       1014
  99.2000       1444
  99.6000       1385
 100.0000        858
 100.4000        622
 100.8000        543
 101.2000        503
 101.6000        491
 102.0000        547
 102.4000        508
 102.8000        515
 103.2000        526
 103.6000        530
 104.0000        501
 104.4000        552
 104.8000        525
 105.2000        473
 105.6000        496
 106.0000        543
 106.4000        518
 106.8000        532
 107.2000        498
 107.6000        517
 108.0000        495
 108.4000        494
 108.8000        525
 109.2000        488
 109.6000        562
 110.0000        526
 110.4000        511
 110.8000        591
 111.2000        569
 111.6000        526
 112.0000        513
 112.4000        562
 112.8000        533
 113.2000        540
 113.6000        522
 114.0000        480
 114.4000        521
 114.8000        519
 115.2000        524
 115.6000        534
 116.0000        541
 116.4000        511
 116.8000        482
 117.2000        508
 117.6000        540
 118.0000        559
 118.4000        539
 118.8000        514
 119.2000        501
 119.6000        538
 120.0000        487
 120.4000        591
 120.8000        487
 121.2000        523
 121.6000        531
 122.0000        484
 122.4000        508
 122.8000        543
 123.2000        541
 123.6000        526
 124.0000        584
 124.4000        511
 124.8000        516
 125.2000        564
 125.6000        487
 126.0000        522
 126.4000        542
 126.8000        540
 127.2000        481
 127.6000        485
 128.0000        516
 128.4000        503
 128.8000        514
 129.2000        511
 129.6000        488
 130.0000        486

; Data for range 2
_DRIVE = COUPLED
_STEPTIME = 0.2
_STEPSIZE = 0.1
_STEPMODE = C
_START = 40
_THETA = 20
_2THETA = 40
_KHI = 10.5
_PHI = 60
_X = -25
_Y = 0
_Z = 0
_DETECTOR = 1
; Detector type : Scintillation counter
_HV = 687
_GAIN = 80
_LLD = 0.69
_ULD = 1.866
_DETECTORSLIT = unkn
_AUX1 = 0
_AUX2 = 0
_AUX3 = 0
_TIMESTARTED = 226
_TEMP_RATE = -1
_TEMP_DELAY = -1
_KV = 35
_MA = 40
_RANGE_WL = 1.78897
_3DPLANE = 0
_V4_ADDITIONALDETECTOR = 0
_V4_D8_DIBNUM = 1
_V4_DETECTORNAME = "Detector 1"
_V4_TTLDETECTOR = None
_V4_DETECTORTYPE = 1
_V4_DETECTORFLAGS = 524545
_V4_DETECTORHV = 687
_V4_DETECTORGAIN = 80
_V4_DETECTORLLD1 = 0.69
_V4_DETECTORWW1 = 1.176
_V4_DETECTORLLD2 = 0
_V4_DETECTORWW2 = 0
_V4_DETECTORPS = 0
_V4_DETECTORDT = 0
_V4_DETECTORPILEUPTIME = 0
_V4_COUNTERS_MASK = 1
_V4_DRIVES_MASK = 0
_V4_ENCODERS_MASK = 0
_2THETACOUNTS = 1
; 2THETA  Cnt1_D1
  40.0000        572
  40.4000        575
  40.8000        580
  41.2000        509
  41.6000        542
  42.0000        528
  42.4000        560
  42.8000        560
  43.2000        577
  43.6000        535
  44.0000        512
  44.4000        535
  44.8000        519
  45.2000        557
  45.6000        543
  46.0000        524
  46.4000        541
  46.8000        508
  47.2000        545
  47.6000        533
  48.0000        545
  48.4000        584
  48.8000        548
  49.2000        545
  49.6000        539
  50.0000        535
  50.4000        629
  50.8000        624
  51.2000        652
  51.6000        751
  52.0000       1283
  52.4000       1216
  52.8000        695
  53.2000        562
  53.6000        564
  54.0000        543
  54.4000        532
  54.8000        544
  55.2000        531
  55.6000        533
  56.0000        488
  56.4000        530
  56.8000        544
  57.2000        549
  57.6000        510
  58.0000        552
  58.4000        529
  58.8000        536
  59.2000        574
  59.6000        566
  60.0000        599
  60.4000        556
  60.8000        541
  61.2000        486
  61.6000        541
  62.0000        511
  62.4000        528
  62.8000        559
  63.2000        507
  63.6000        559
  64.0000        489
  64.4000        543
  64.8000        526
  65.2000        555
  65.6000        509
  66.0000        532
  66.4000        541
  66.8000        564
  67.2000        554
  67.6000        505
  68.0000        532
  68.4000        557
  68.8000        507
  69.2000        557
  69.6000        493
  70.0000        535
  70.4000        528
  70.8000        537
  71.2000        513
  71.6000        485
  72.0000        508
  72.4000        487
  72.8000        540
  73.2000        513
  73.6000        486
  74.0000        532
  74.4000        517
  74.8000        524
  75.2000        542
  75.6000        517
  76.0000        526
  76.4000        610
  76.8000        699
  77.2000        629
  77.6000        547
  78.0000        550
  78.4000        563
  78.8000        525
  79.2000        561
  79.6000        534
  80.0000        541
  80.4000        507
  80.8000        542
  81.2000        492
  81.6000        524
  82.0000        489
  82.4000        561
  82.8000        506
  83.2000        524
  83.6000        510
  84.0000        556
  84.4000        513
  84.8000        500
  85.2000        560
  85.6000        485
  86.0000        504
  86.4000        513
  86.8000        498
  87.2000        513
  87.6000        518
  88.0000        567
  88.4000        490
  88.8000        566
  89.2000        559
  89.6000        603
  90.0000        541
  90.4000        549
  90.8000        519
  91.2000        511
  91.6000        520
  92.0000        503
  92.4000        531
  92.8000        536
  93.2000        536
  93.6000        487
  94.0000        463
  94.4000        514
  94.8000        510
  95.2000        580
  95.6000        497
  96.0000        497
  96.4000        540
  96.8000        514
  97.2000        518
  97.6000        557
  98.0000        537
  98.4000        583
  98.8000        759
  99.2000        891
  99.6000        892
 100.0000        683
 100.4000        552
 100.8000        518
 101.2000        541
 101.6000        568
 102.0000        490
 102.4000        508
 102.8000        479
 103.2000        512
 103.6000        534
 104.0000        517
 104.4000        582
 104.8000        534
 105.2000        478
 105.6000        551
 106.0000        512
 106.4000        489
 106.8000        530
 107.2000        481
 107.6000        517
 108.0000        505
 108.4000        543
 108.8000        505
 109.2000        509
 109.6000        521
 110.0000        531
 110.4000        580
 110.8000        577
 111.2000        526
 111.6000        555
 112.0000        513
 112.4000        508
 112.8000        512
 113.2000        517
 113.6000        496
 114.0000        535
 114.4000        537
 114.8000        546
 115.2000        537
 115.6000        535
 116.0000        533
 116.4000        505
 116.8000        516
 117.2000        528
 117.6000        546
 118.0000        576
 118.4000        509
 118.8000        476
 119.2000        529
 119.6000        498
 120.0000        504
 120.4000        507
 120.8000        529
 121.2000        518
 121.6000        484
 122.0000        507
 122.4000        511
 122.8000        521
 123.2000        561
 123.6000        556
 124.0000        560
 124.4000        506
 124.8000        524
 125.2000        563
 125.6000        467
 126.0000        481
 126.4000        521
 126.8000        563
 127.2000        487
 127.6000        529
 128.0000        493
 128.4000        494
 128.8000        523
 129.2000        540
 129.6000        513
 130.0000        499

; Data for range 3
_DRIVE = COUPLED
_STEPTIME = 0.2
_STEPSIZE = 0.1
_STEPMODE = C
_START = 40
_THETA = 20
_2THETA = 40
_KHI = 18.3
_PHI = 90
_X = -25
_Y = 0
_Z = 0
_DETECTOR = 1
; Detector type : Scintillation counter
_HV = 687
_GAIN = 80
_LLD = 0.69
_ULD = 1.866
_DETECTORSLIT = unkn
_AUX1 = 0
_AUX2 = 0
_AUX3 = 0
_TIMESTARTED = 423
_TEMP_RATE = -1
_TEMP_DELAY = -1
_KV = 35
_MA = 40
_RANGE_WL = 1.78897
_3DPLANE = 0
_V4_ADDITIONALDETECTOR = 0
_V4_D8_DIBNUM = 1
_V4_DETECTORNAME = "Detector 1"
_V4_TTLDETECTOR = None
_V4_DETECTORTYPE = 1
_V4_DETECTORFLAGS = 524545
_V4_DETECTORHV = 687
_V4_DETECTORGAIN = 80
_V4_DETECTORLLD1 = 0.69
_V4_DETECTORWW1 = 1.176
_V4_DETECTORLLD2 = 0
_V4_DETECTORWW2 = 0
_V4_DETECTORPS = 0
_V4_DETECTORDT = 0
_V4_DETECTORPILEUPTIME = 0
_V4_COUNTERS_MASK = 1
_V4_DRIVES_MASK = 0
_V4_ENCODERS_MASK = 0
_2THETACOUNTS = 1
; 2THETA  Cnt1_D1
  40.0000        573
  40.4000        542
  40.8000        526
  41.2000        556
  41.6000        497
  42.0000        552
  42.4000        575
  42.8000        575
  43.2000        536
  43.6000        580
  44.0000        588
  44.4000        603
  44.8000        555
  45.2000        570
  45.6000        511
  46.0000        575
  46.4000        539
  46.8000        522
  47.2000        569
  47.6000        550
  48.0000        549
  48.4000        574
  48.8000        538
  49.2000        528
  49.6000        512
  50.0000        574
  50.4000        695
  50.8000        931
  51.2000        932
  51.6000       1291
  52.0000       2495
  52.4000       2247
  52.8000        874
  53.2000        581
  53.6000        597
  54.0000        562
  54.4000        539
  54.8000        501
  55.2000        536
  55.6000        528
  56.0000        542
  56.4000        530
  56.8000        540
  57.2000        580
  57.6000        558
  58.0000        542
  58.4000        557
  58.8000        565
  59.2000        611
  59.6000        610
  60.0000        631
  60.4000        544
  60.8000        532
  61.2000        523
  61.6000        500
  62.0000        522
  62.4000        553
  62.8000        509
  63.2000        502
  63.6000        544
  64.0000        569
  64.4000        556
  64.8000        534
  65.2000        548
  65.6000        515
  66.0000        551
  66.4000        544
  66.8000        529
  67.2000        470
  67.6000        531
  68.0000        569
  68.4000        545
  68.8000        486
  69.2000        577
  69.6000        525
  70.0000        512
  70.4000        541
  70.8000        514
  71.2000        512
  71.6000        547
  72.0000        512
  72.4000        528
  72.8000        542
  73.2000        512
  73.6000        493
  74.0000        502
  74.4000        524
  74.8000        488
  75.2000        514
  75.6000        558
  76.0000        547
  76.4000        548
  76.8000        610
  77.2000        612
  77.6000        526
  78.0000        522
  78.4000        529
  78.8000        538
  79.2000        528
  79.6000        483
  80.0000        521
  80.4000        501
  80.8000        489
  81.2000        539
  81.6000        524
  82.0000        471
  82.4000        571
  82.8000        553
  83.2000        511
  83.6000        500
  84.0000        538
  84.4000        508
  84.8000        521
  85.2000        500
  85.6000        532
  86.0000        506
  86.4000        485
  86.8000        496
  87.2000        485
  87.6000        503
  88.0000        537
  88.4000        539
  88.8000        540
  89.2000        538
  89.6000        539
  90.0000        493
  90.4000        519
  90.8000        528
  91.2000        545
  91.6000        542
  92.0000        527
  92.4000        513
  92.8000        517
  93.2000        535
  93.6000        507
  94.0000        508
  94.4000        529
  94.8000        498
  95.2000        501
  95.6000        539
  96.0000        506
  96.4000        551
  96.8000        542
  97.2000        522
  97.6000        518
  98.0000        519
  98.4000        591
  98.8000        676
  99.2000        801
  99.6000        763
 100.0000        648
 100.4000        532
 100.8000        519
 101.2000        538
 101.6000        530
 102.0000        510
 102.4000        498
 102.8000        487
 103.2000        523
 103.6000        482
 104.0000        491
 104.4000        503
 104.8000        511
 105.2000        483
 105.6000        470
 106.0000        514
 106.4000        517
 106.8000        480
 107.2000        530
 107.6000        531
 108.0000        560
 108.4000        514
 108.8000        520
 109.2000        489
 109.6000        527
 110.0000        530
 110.4000        508
 110.8000        585
 111.2000        544
 111.6000        526
 112.0000        517
 112.4000        485
 112.8000        530
 113.2000        520
 113.6000        523
 114.0000        505
 114.4000        535
 114.8000        510
 115.2000        508
 115.6000        509
 116.0000        513
 116.4000        533
 116.8000        480
 117.2000        535
 117.6000        552
 118.0000        537
 118.4000        547
 118.8000        565
 119.2000        515
 119.6000        518
 120.0000        514
 120.4000        568
 120.8000        512
 121.2000        519
 121.6000        510
[...]
  72.4000        283
  72.8000        275
  73.2000        304
  73.6000        305
  74.0000        266
  74.4000        257
  74.8000        302
  75.2000        317
  75.6000        321
  76.0000        303
  76.4000        332
  76.8000        337
  77.2000        337
  77.6000        334
  78.0000        340
  78.4000        293
  78.8000        357
  79.2000        317
  79.6000        295
  80.0000        316
  80.4000        306
  80.8000        351
  81.2000        298
  81.6000        310
  82.0000        347
  82.4000        303
  82.8000        300
  83.2000        307
  83.6000        325
  84.0000        308
  84.4000        331
  84.8000        325
  85.2000        323
  85.6000        315
  86.0000        309
  86.4000        328
  86.8000        302
  87.2000        352
  87.6000        292
  88.0000        345
  88.4000        323
  88.8000        369
  89.2000        315
  89.6000        341
  90.0000        327
  90.4000        308
  90.8000        308
  91.2000        328
  91.6000        334
  92.0000        309
  92.4000        346
  92.8000        333
  93.2000        336
  93.6000        326
  94.0000        327
  94.4000        328
  94.8000        311
  95.2000        370
  95.6000        333
  96.0000        385
  96.4000        331
  96.8000        342
  97.2000        330
  97.6000        355
  98.0000        352
  98.4000        488
  98.8000        512
  99.2000        560
  99.6000        590
 100.0000        474
 100.4000        401
 100.8000        390
 101.2000        368
 101.6000        348
 102.0000        351
 102.4000        383
 102.8000        359
 103.2000        347
 103.6000        367
 104.0000        350
 104.4000        373
 104.8000        347
 105.2000        359
 105.6000        352
 106.0000        351
 106.4000        376
 106.8000        353
 107.2000        369
 107.6000        373
 108.0000        350
 108.4000        352
 108.8000        363
 109.2000        384
 109.6000        372
 110.0000        370
 110.4000        394
 110.8000        384
 111.2000        366
 111.6000        374
 112.0000        364
 112.4000        380
 112.8000        396
 113.2000        367
 113.6000        338
 114.0000        368
 114.4000        395
 114.8000        371
 115.2000        370
 115.6000        379
 116.0000        367
 116.4000        389
 116.8000        414
 117.2000        389
 117.6000        382
 118.0000        442
 118.4000        419
 118.8000        418
 119.2000        389
 119.6000        430
 120.0000        374
 120.4000        376
 120.8000        342
 121.2000        390
 121.6000        400
 122.0000        409
 122.4000        452
 122.8000        488
 123.2000        459
 123.6000        460
 124.0000        450
 124.4000        443
 124.8000        413
 125.2000        395
 125.6000        429
 126.0000        376
 126.4000        409
 126.8000        396
 127.2000        414
 127.6000        359
 128.0000        385
 128.4000        440
 128.8000        361
 129.2000        431
 129.6000        393
 130.0000        395

; Data for range 53
_DRIVE = COUPLED
_STEPTIME = 0.2
_STEPSIZE = 0.1
_STEPMODE = C
_START = 40
_THETA = 20
_2THETA = 40
_KHI = 80
_PHI = 0
_X = -25
_Y = 0
_Z = 0
_DETECTOR = 1
; Detector type : Scintillation counter
_HV = 687
_GAIN = 80
_LLD = 0.69
_ULD = 1.866
_DETECTORSLIT = unkn
_AUX1 = 0
_AUX2 = 0
_AUX3 = 0
_TIMESTARTED = 1.03e+004
_TEMP_RATE = -1
_TEMP_DELAY = -1
_KV = 35
_MA = 40
_RANGE_WL = 1.78897
_3DPLANE = 0
_V4_ADDITIONALDETECTOR = 0
_V4_D8_DIBNUM = 1
_V4_DETECTORNAME = "Detector 1"
_V4_TTLDETECTOR = None
_V4_DETECTORTYPE = 1
_V4_DETECTORFLAGS = 524545
_V4_DETECTORHV = 687
_V4_DETECTORGAIN = 80
_V4_DETECTORLLD1 = 0.69
_V4_DETECTORWW1 = 1.176
_V4_DETECTORLLD2 = 0
_V4_DETECTORWW2 = 0
_V4_DETECTORPS = 0
_V4_DETECTORDT = 0
_V4_DETECTORPILEUPTIME = 0
_V4_COUNTERS_MASK = 1
_V4_DRIVES_MASK = 0
_V4_ENCODERS_MASK = 0
_2THETACOUNTS = 1
; 2THETA  Cnt1_D1
  40.0000        176
  40.4000        179
  40.8000        168
  41.2000        184
  41.6000        151
  42.0000        186
  42.4000        180
  42.8000        197
  43.2000        269
  43.6000        255
  44.0000        220
  44.4000        187
  44.8000        202
  45.2000        183
  45.6000        135
  46.0000        169
  46.4000        163
  46.8000        173
  47.2000        190
  47.6000        186
  48.0000        194
  48.4000        181
  48.8000        202
  49.2000        164
  49.6000        214
  50.0000        231
  50.4000        269
  50.8000        342
  51.2000        427
  51.6000        607
  52.0000        763
  52.4000        823
  52.8000        583
  53.2000        317
  53.6000        218
  54.0000        218
  54.4000        227
  54.8000        198
  55.2000        215
  55.6000        226
  56.0000        222
  56.4000        229
  56.8000        239
  57.2000        195
  57.6000        203
  58.0000        210
  58.4000        216
  58.8000        224
  59.2000        206
  59.6000        242
  60.0000        229
  60.4000        221
  60.8000        229
  61.2000        217
  61.6000        219
  62.0000        231
  62.4000        243
  62.8000        224
  63.2000        211
  63.6000        236
  64.0000        231
  64.4000        236
  64.8000        212
  65.2000        248
  65.6000        239
  66.0000        245
  66.4000        229
  66.8000        255
  67.2000        229
  67.6000        237
  68.0000        255
  68.4000        232
  68.8000        224
  69.2000        246
  69.6000        259
  70.0000        248
  70.4000        246
  70.8000        240
  71.2000        238
  71.6000        247
  72.0000        272
  72.4000        275
  72.8000        256
  73.2000        256
  73.6000        254
  74.0000        279
  74.4000        262
  74.8000        263
  75.2000        280
  75.6000        288
  76.0000        299
  76.4000        318
  76.8000        308
  77.2000        299
  77.6000        295
  78.0000        270
  78.4000        294
  78.8000        279
  79.2000        275
  79.6000        287
  80.0000        293
  80.4000        288
  80.8000        302
  81.2000        310
  81.6000        307
  82.0000        290
  82.4000        287
  82.8000        291
  83.2000        307
  83.6000        298
  84.0000        293
  84.4000        329
  84.8000        276
  85.2000        300
  85.6000        323
  86.0000        319
  86.4000        310
  86.8000        322
  87.2000        318
  87.6000        294
  88.0000        297
  88.4000        339
  88.8000        295
  89.2000        346
  89.6000        334
  90.0000        353
  90.4000        322
  90.8000        288
  91.2000        349
  91.6000        376
  92.0000        325
  92.4000        335
  92.8000        323
  93.2000        337
  93.6000        349
  94.0000        351
  94.4000        354
  94.8000        322
  95.2000        354
  95.6000        345
  96.0000        355
  96.4000        332
  96.8000        353
  97.2000        324
  97.6000        329
  98.0000        419
  98.4000        452
  98.8000        522
  99.2000        550
  99.6000        553
 100.0000        524
 100.4000        379
 100.8000        371
 101.2000        369
 101.6000        329
 102.0000        328
 102.4000        380
 102.8000        400
 103.2000        383
 103.6000        369
 104.0000        396
 104.4000        391
 104.8000        400
 105.2000        363
 105.6000        385
 106.0000        360
 106.4000        397
 106.8000        382
 107.2000        362
 107.6000        378
 108.0000        412
 108.4000        399
 108.8000        366
 109.2000        382
 109.6000        383
 110.0000        423
 110.4000        394
 110.8000        386
 111.2000        406
 111.6000        402
 112.0000        386
 112.4000        386
 112.8000        392
 113.2000        423
 113.6000        389
 114.0000        394
 114.4000        409
 114.8000        372
 115.2000        379
 115.6000        390
 116.0000        398
 116.4000        405
 116.8000        399
 117.2000        445
 117.6000        408
 118.0000        386
 118.4000        445
 118.8000        460
 119.2000        412
 119.6000        410
 120.0000        411
 120.4000        386
 120.8000        428
 121.2000        387
 121.6000        400
 122.0000        453
 122.4000        474
 122.8000        485
 123.2000        571
 123.6000        539
 124.0000        519
 124.4000        481
 124.8000        387
 125.2000        410
 125.6000        415
 126.0000        428
 126.4000        396
 126.8000        415
 127.2000        412
 127.6000        430
 128.0000        408
 128.4000        423
 128.8000        393
 129.2000        403
 129.6000        399
 130.0000        427