Folder: sw/exp_dat/old/exp_2013_11_11

File: 00pct_180L.uxd
; (content of file C:\DIFFDAT1\GIFT\MDL\Seawoong Lee\20131104_MV8\equal_area_maxkhi080_n8_2th40_130_x00y25_180L_2.raw)
_FILEVERSION = 3
_SAMPLE =
_+SAMPLE =
_SITE = Korea
_USER = Admin
_GONIOMETER_CODE = 20
; Goniometer : D8 theta/2theta, stage : Unknown
_SAMPLE_CHANGER_CODE = 0
_ATTACHMENTS_CODE = 0
_GONIOMETER_RADIUS = 300
_FIXED_DIVSLIT = 1
_FIXED_SAMPLESLIT = 0
_SOLLER_SLITS = 2
_FIXED_DETSLIT = 0.1
_MONOCHROMATOR = 0
; Incident beam monochromator : None
_SOLLER_SLITS_2 = 2
_THIN_FILM = N
_BETA_FILTER = Y
_FIXED_ANTISLIT = 0.6
_ANALYZER_CODE = 0
; Received beam analyzer : None
_DATEMEASURED = "09-Nov-2013 03:26:58"
_WL_UNIT = A
_WL1 = 1.78897
_WL2 = 1.79285
_WL3 = 1.62079
_WLRATIO = 0.5
_ANODE = Co
_V4_INF_CREATOR = XRDWizard
_V4_INF_CREATOR_VERSION = V2.9.0.22
_V4_INF_WIZARD_VERSION = V2.9.0.22
_V4_INF_WIZARD_ADDINS = V2.9.0.22
_V4_INF_WIZARD_DOCTYPE = XRD
_V4_INF_OSUSER = Postech
_V4_INF_USER = Admin
_V4_INF_SITE = Korea

; Data for range 1
_DRIVE = COUPLED
_STEPTIME = 0.2
_STEPSIZE = 0.1
_STEPMODE = C
_START = 40
_THETA = 20
_2THETA = 40
_KHI = 0
_PHI = 0
_X = 0
_Y = 25
_Z = 0
_DETECTOR = 1
; Detector type : Scintillation counter
_HV = 687
_GAIN = 80
_LLD = 0.69
_ULD = 1.866
_DETECTORSLIT = unkn
_AUX1 = 0
_AUX2 = 0
_AUX3 = 0
_TIMESTARTED = 28
_TEMP_RATE = -1
_TEMP_DELAY = -1
_KV = 35
_MA = 40
_RANGE_WL = 1.78897
_3DPLANE = 0
_V4_ADDITIONALDETECTOR = 0
_V4_D8_DIBNUM = 1
_V4_DETECTORNAME = "Detector 1"
_V4_TTLDETECTOR = None
_V4_DETECTORTYPE = 1
_V4_DETECTORFLAGS = 524545
_V4_DETECTORHV = 687
_V4_DETECTORGAIN = 80
_V4_DETECTORLLD1 = 0.69
_V4_DETECTORWW1 = 1.176
_V4_DETECTORLLD2 = 0
_V4_DETECTORWW2 = 0
_V4_DETECTORPS = 0
_V4_DETECTORDT = 0
_V4_DETECTORPILEUPTIME = 0
_V4_COUNTERS_MASK = 1
_V4_DRIVES_MASK = 0
_V4_ENCODERS_MASK = 0
_2THETACOUNTS = 1
; 2THETA  Cnt1_D1
  40.0000        507
  40.4000        522
  40.8000        594
  41.2000        529
  41.6000        517
  42.0000        505
  42.4000        514
  42.8000        536
  43.2000        522
  43.6000        518
  44.0000        495
  44.4000        510
  44.8000        503
  45.2000        497
  45.6000        494
  46.0000        514
  46.4000        504
  46.8000        481
  47.2000        562
  47.6000        513
  48.0000        522
  48.4000        507
  48.8000        494
  49.2000        475
  49.6000        525
  50.0000        519
  50.4000        537
  50.8000        548
  51.2000        544
  51.6000        755
  52.0000       1296
  52.4000       1267
  52.8000        589
  53.2000        546
  53.6000        521
  54.0000        491
  54.4000        493
  54.8000        520
  55.2000        482
  55.6000        516
  56.0000        529
  56.4000        513
  56.8000        493
  57.2000        530
  57.6000        482
  58.0000        523
  58.4000        518
  58.8000        481
  59.2000        537
  59.6000        542
  60.0000        536
  60.4000        500
  60.8000        455
  61.2000        549
  61.6000        501
  62.0000        492
  62.4000        530
  62.8000        491
  63.2000        501
  63.6000        502
  64.0000        471
  64.4000        504
  64.8000        472
  65.2000        516
  65.6000        522
  66.0000        507
  66.4000        522
  66.8000        477
  67.2000        503
  67.6000        509
  68.0000        518
  68.4000        534
  68.8000        509
  69.2000        521
  69.6000        540
  70.0000        552
  70.4000        500
  70.8000        500
  71.2000        512
  71.6000        514
  72.0000        473
  72.4000        547
  72.8000        526
  73.2000        504
  73.6000        493
  74.0000        527
  74.4000        499
  74.8000        494
  75.2000        498
  75.6000        513
  76.0000        505
  76.4000        764
  76.8000       1010
  77.2000        981
  77.6000        548
  78.0000        487
  78.4000        509
  78.8000        488
  79.2000        481
  79.6000        498
  80.0000        509
  80.4000        487
  80.8000        498
  81.2000        516
  81.6000        538
  82.0000        500
  82.4000        539
  82.8000        496
  83.2000        524
  83.6000        476
  84.0000        493
  84.4000        548
  84.8000        515
  85.2000        485
  85.6000        520
  86.0000        496
  86.4000        518
  86.8000        508
  87.2000        535
  87.6000        503
  88.0000        508
  88.4000        515
  88.8000        592
  89.2000        629
  89.6000        632
  90.0000        542
  90.4000        495
  90.8000        516
  91.2000        488
  91.6000        507
  92.0000        482
  92.4000        519
  92.8000        525
  93.2000        560
  93.6000        505
  94.0000        521
  94.4000        508
  94.8000        538
  95.2000        493
  95.6000        517
  96.0000        511
  96.4000        461
  96.8000        517
  97.2000        508
  97.6000        530
  98.0000        485
  98.4000        502
  98.8000        843
  99.2000       1543
  99.6000       1243
 100.0000        686
 100.4000        512
 100.8000        468
 101.2000        481
 101.6000        503
 102.0000        496
 102.4000        512
 102.8000        519
 103.2000        502
 103.6000        514
 104.0000        512
 104.4000        503
 104.8000        527
 105.2000        492
 105.6000        475
 106.0000        502
 106.4000        519
 106.8000        526
 107.2000        470
 107.6000        532
 108.0000        500
 108.4000        534
 108.8000        534
 109.2000        542
 109.6000        495
 110.0000        490
 110.4000        557
 110.8000        580
 111.2000        583
 111.6000        530
 112.0000        535
 112.4000        490
 112.8000        488
 113.2000        479
 113.6000        492
 114.0000        509
 114.4000        493
 114.8000        474
 115.2000        522
 115.6000        496
 116.0000        528
 116.4000        551
 116.8000        528
 117.2000        502
 117.6000        508
 118.0000        528
 118.4000        483
 118.8000        503
 119.2000        488
 119.6000        483
 120.0000        489
 120.4000        477
 120.8000        467
 121.2000        529
 121.6000        522
 122.0000        506
 122.4000        553
 122.8000        562
 123.2000        619
 123.6000        584
 124.0000        528
 124.4000        476
 124.8000        490
 125.2000        513
 125.6000        487
 126.0000        541
 126.4000        515
 126.8000        497
 127.2000        505
 127.6000        549
 128.0000        485
 128.4000        482
 128.8000        483
 129.2000        568
 129.6000        527
 130.0000        545

; Data for range 2
_DRIVE = COUPLED
_STEPTIME = 0.2
_STEPSIZE = 0.1
_STEPMODE = C
_START = 40
_THETA = 20
_2THETA = 40
_KHI = 10.5
_PHI = 60
_X = 0
_Y = 25
_Z = 0
_DETECTOR = 1
; Detector type : Scintillation counter
_HV = 687
_GAIN = 80
_LLD = 0.69
_ULD = 1.866
_DETECTORSLIT = unkn
_AUX1 = 0
_AUX2 = 0
_AUX3 = 0
_TIMESTARTED = 225
_TEMP_RATE = -1
_TEMP_DELAY = -1
_KV = 35
_MA = 40
_RANGE_WL = 1.78897
_3DPLANE = 0
_V4_ADDITIONALDETECTOR = 0
_V4_D8_DIBNUM = 1
_V4_DETECTORNAME = "Detector 1"
_V4_TTLDETECTOR = None
_V4_DETECTORTYPE = 1
_V4_DETECTORFLAGS = 524545
_V4_DETECTORHV = 687
_V4_DETECTORGAIN = 80
_V4_DETECTORLLD1 = 0.69
_V4_DETECTORWW1 = 1.176
_V4_DETECTORLLD2 = 0
_V4_DETECTORWW2 = 0
_V4_DETECTORPS = 0
_V4_DETECTORDT = 0
_V4_DETECTORPILEUPTIME = 0
_V4_COUNTERS_MASK = 1
[...]
  60.8000        269
  61.2000        261
  61.6000        246
  62.0000        251
  62.4000        240
  62.8000        254
  63.2000        248
  63.6000        265
  64.0000        238
  64.4000        257
  64.8000        266
  65.2000        301
  65.6000        244
  66.0000        269
  66.4000        284
  66.8000        262
  67.2000        280
  67.6000        279
  68.0000        281
  68.4000        237
  68.8000        241
  69.2000        258
  69.6000        279
  70.0000        247
  70.4000        247
  70.8000        240
  71.2000        259
  71.6000        263
  72.0000        296
  72.4000        246
  72.8000        291
  73.2000        297
  73.6000        265
  74.0000        274
  74.4000        273
  74.8000        291
  75.2000        325
  75.6000        271
  76.0000        342
  76.4000        299
  76.8000        362
  77.2000        359
  77.6000        336
  78.0000        344
  78.4000        303
  78.8000        314
  79.2000        297
  79.6000        257
  80.0000        322
  80.4000        281
  80.8000        296
  81.2000        336
  81.6000        355
  82.0000        341
  82.4000        301
  82.8000        304
  83.2000        278
  83.6000        332
  84.0000        338
  84.4000        323
  84.8000        336
  85.2000        316
  85.6000        334
  86.0000        349
  86.4000        313
  86.8000        351
  87.2000        350
  87.6000        320
  88.0000        352
  88.4000        341
  88.8000        341
  89.2000        327
  89.6000        352
  90.0000        372
  90.4000        338
  90.8000        323
  91.2000        347
  91.6000        372
  92.0000        371
  92.4000        301
  92.8000        338
  93.2000        341
  93.6000        342
  94.0000        351
  94.4000        334
  94.8000        329
  95.2000        352
  95.6000        357
  96.0000        379
  96.4000        348
  96.8000        360
  97.2000        358
  97.6000        400
  98.0000        405
  98.4000        411
  98.8000        522
  99.2000        539
  99.6000        493
 100.0000        490
 100.4000        435
 100.8000        371
 101.2000        377
 101.6000        369
 102.0000        446
 102.4000        366
 102.8000        396
 103.2000        365
 103.6000        401
 104.0000        421
 104.4000        390
 104.8000        392
 105.2000        392
 105.6000        380
 106.0000        372
 106.4000        396
 106.8000        441
 107.2000        393
 107.6000        381
 108.0000        427
 108.4000        380
 108.8000        423
 109.2000        423
 109.6000        419
 110.0000        478
 110.4000        457
 110.8000        451
 111.2000        397
 111.6000        415
 112.0000        436
 112.4000        404
 112.8000        430
 113.2000        419
 113.6000        441
 114.0000        393
 114.4000        413
 114.8000        455
 115.2000        401
 115.6000        438
 116.0000        414
 116.4000        414
 116.8000        436
 117.2000        428
 117.6000        447
 118.0000        435
 118.4000        467
 118.8000        472
 119.2000        467
 119.6000        466
 120.0000        426
 120.4000        447
 120.8000        476
 121.2000        445
 121.6000        428
 122.0000        458
 122.4000        481
 122.8000        526
 123.2000        580
 123.6000        632
 124.0000        579
 124.4000        525
 124.8000        447
 125.2000        418
 125.6000        434
 126.0000        450
 126.4000        460
 126.8000        418
 127.2000        432
 127.6000        433
 128.0000        436
 128.4000        413
 128.8000        463
 129.2000        459
 129.6000        444
 130.0000        429

File: 01pct_181G.uxd
; (content of file C:\DIFFDAT1\GIFT\MDL\Seawoong Lee\20131104_MV8\equal_area_maxkhi080_n8_2th40_130_x-25y-25_180g_2.raw)
_FILEVERSION = 3
_SAMPLE =
_+SAMPLE =
_SITE = Korea
_USER = Admin
_GONIOMETER_CODE = 20
; Goniometer : D8 theta/2theta, stage : Unknown
_SAMPLE_CHANGER_CODE = 0
_ATTACHMENTS_CODE = 0
_GONIOMETER_RADIUS = 300
_FIXED_DIVSLIT = 1
_FIXED_SAMPLESLIT = 0
_SOLLER_SLITS = 2
_FIXED_DETSLIT = 0.1
_MONOCHROMATOR = 0
; Incident beam monochromator : None
_SOLLER_SLITS_2 = 2
_THIN_FILM = N
_BETA_FILTER = Y
_FIXED_ANTISLIT = 0.6
_ANALYZER_CODE = 0
; Received beam analyzer : None
_DATEMEASURED = "09-Nov-2013 06:21:40"
_WL_UNIT = A
_WL1 = 1.78897
_WL2 = 1.79285
_WL3 = 1.62079
_WLRATIO = 0.5
_ANODE = Co
_V4_INF_CREATOR = XRDWizard
_V4_INF_CREATOR_VERSION = V2.9.0.22
_V4_INF_WIZARD_VERSION = V2.9.0.22
_V4_INF_WIZARD_ADDINS = V2.9.0.22
_V4_INF_WIZARD_DOCTYPE = XRD
_V4_INF_OSUSER = Postech
_V4_INF_USER = Admin
_V4_INF_SITE = Korea

; Data for range 1
_DRIVE = COUPLED
_STEPTIME = 0.2
_STEPSIZE = 0.1
_STEPMODE = C
_START = 40
_THETA = 20
_2THETA = 40
_KHI = 0
_PHI = 0
_X = -25
_Y = -25
_Z = 0
_DETECTOR = 1
; Detector type : Scintillation counter
_HV = 687
_GAIN = 80
_LLD = 0.69
_ULD = 1.866
_DETECTORSLIT = unkn
_AUX1 = 0
_AUX2 = 0
_AUX3 = 0
_TIMESTARTED = 28
_TEMP_RATE = -1
_TEMP_DELAY = -1
_KV = 35
_MA = 40
_RANGE_WL = 1.78897
_3DPLANE = 0
_V4_ADDITIONALDETECTOR = 0
_V4_D8_DIBNUM = 1
_V4_DETECTORNAME = "Detector 1"
_V4_TTLDETECTOR = None
_V4_DETECTORTYPE = 1
_V4_DETECTORFLAGS = 524545
_V4_DETECTORHV = 687
_V4_DETECTORGAIN = 80
_V4_DETECTORLLD1 = 0.69
_V4_DETECTORWW1 = 1.176
_V4_DETECTORLLD2 = 0
_V4_DETECTORWW2 = 0
_V4_DETECTORPS = 0
_V4_DETECTORDT = 0
_V4_DETECTORPILEUPTIME = 0
_V4_COUNTERS_MASK = 1
_V4_DRIVES_MASK = 0
_V4_ENCODERS_MASK = 0
_2THETACOUNTS = 1
; 2THETA  Cnt1_D1
  40.0000        524
  40.4000        542
  40.8000        505
  41.2000        492
  41.6000        488
  42.0000        502
  42.4000        523
  42.8000        486
  43.2000        525
  43.6000        500
  44.0000        517
  44.4000        545
  44.8000        508
  45.2000        505
  45.6000        515
  46.0000        538
  46.4000        547
  46.8000        571
  47.2000        529
  47.6000        524
  48.0000        516
  48.4000        498
  48.8000        524
  49.2000        521
  49.6000        509
  50.0000        515
  50.4000        529
  50.8000        539
  51.2000        562
  51.6000        723
  52.0000       1105
  52.4000       1085
  52.8000        639
  53.2000        498
  53.6000        512
  54.0000        477
  54.4000        533
  54.8000        499
  55.2000        503
  55.6000        504
  56.0000        501
  56.4000        546
  56.8000        480
  57.2000        511
  57.6000        506
  58.0000        541
  58.4000        547
  58.8000        553
  59.2000        514
  59.6000        601
  60.0000        567
  60.4000        524
  60.8000        496
  61.2000        504
  61.6000        538
  62.0000        534
  62.4000        522
  62.8000        511
  63.2000        481
  63.6000        494
  64.0000        531
  64.4000        508
  64.8000        521
  65.2000        490
  65.6000        550
  66.0000        514
  66.4000        521
  66.8000        491
  67.2000        531
  67.6000        529
  68.0000        517
  68.4000        533
  68.8000        519
  69.2000        536
  69.6000        461
  70.0000        494
  70.4000        510
  70.8000        473
  71.2000        546
  71.6000        476
  72.0000        514
  72.4000        524
  72.8000        547
  73.2000        516
  73.6000        505
  74.0000        478
  74.4000        536
  74.8000        508
  75.2000        532
  75.6000        477
  76.0000        573
  76.4000       1004
  76.8000       1362
  77.2000       1113
  77.6000        696
  78.0000        585
  78.4000        513
  78.8000        560
  79.2000        508
  79.6000        525
  80.0000        482
  80.4000        485
  80.8000        525
  81.2000        531
  81.6000        497
  82.0000        493
  82.4000        570
  82.8000        550
  83.2000        514
  83.6000        498
  84.0000        508
  84.4000        488
  84.8000        534
  85.2000        509
  85.6000        521
  86.0000        528
  86.4000        543
  86.8000        525
  87.2000        546
  87.6000        487
  88.0000        528
  88.4000        500
  88.8000        538
  89.2000        639
  89.6000        645
  90.0000        552
  90.4000        536
  90.8000        505
  91.2000        509
  91.6000        486
  92.0000        492
  92.4000        506
  92.8000        516
  93.2000        527
  93.6000        478
  94.0000        532
  94.4000        494
  94.8000        506
  95.2000        515
  95.6000        480
  96.0000        520
  96.4000        558
  96.8000        509
  97.2000        539
  97.6000        513
  98.0000        544
  98.4000        604
  98.8000       1027
  99.2000       1545
  99.6000       1403
 100.0000        799
 100.4000        569
 100.8000        508
 101.2000        530
 101.6000        521
 102.0000        545
 102.4000        507
 102.8000        534
 103.2000        533
 103.6000        512
 104.0000        501
 104.4000        504
 104.8000        526
 105.2000        477
 105.6000        472
 106.0000        529
 106.4000        537
 106.8000        517
 107.2000        523
 107.6000        503
 108.0000        515
 108.4000        545
 108.8000        499
 109.2000        535
 109.6000        555
 110.0000        556
 110.4000        549
 110.8000        516
 111.2000        575
 111.6000        587
 112.0000        478
 112.4000        545
 112.8000        569
 113.2000        501
 113.6000        513
 114.0000        516
 114.4000        520
 114.8000        519
 115.2000        538
 115.6000        500
 116.0000        511
 116.4000        499
 116.8000        497
 117.2000        525
 117.6000        477
 118.0000        536
 118.4000        512
 118.8000        508
 119.2000        510
 119.6000        507
 120.0000        505
 120.4000        504
 120.8000        474
 121.2000        511
 121.6000        490
 122.0000        501
 122.4000        491
 122.8000        548
 123.2000        530
 123.6000        535
 124.0000        549
 124.4000        497
 124.8000        520
 125.2000        556
 125.6000        532
 126.0000        507
 126.4000        559
 126.8000        497
 127.2000        475
 127.6000        523
 128.0000        534
 128.4000        492
 128.8000        508
 129.2000        520
 129.6000        492
 130.0000        517

; Data for range 2
_DRIVE = COUPLED
_STEPTIME = 0.2
_STEPSIZE = 0.1
_STEPMODE = C
_START = 40
_THETA = 20
_2THETA = 40
_KHI = 10.5
_PHI = 60
_X = -25
_Y = -25
_Z = 0
_DETECTOR = 1
; Detector type : Scintillation counter
_HV = 687
_GAIN = 80
_LLD = 0.69
_ULD = 1.866
_DETECTORSLIT = unkn
_AUX1 = 0
_AUX2 = 0
_AUX3 = 0
_TIMESTARTED = 225
_TEMP_RATE = -1
_TEMP_DELAY = -1
_KV = 35
_MA = 40
_RANGE_WL = 1.78897
_3DPLANE = 0
_V4_ADDITIONALDETECTOR = 0
_V4_D8_DIBNUM = 1
_V4_DETECTORNAME = "Detector 1"
_V4_TTLDETECTOR = None
_V4_DETECTORTYPE = 1
_V4_DETECTORFLAGS = 524545
_V4_DETECTORHV = 687
_V4_DETECTORGAIN = 80
_V4_DETECTORLLD1 = 0.69
_V4_DETECTORWW1 = 1.176
_V4_DETECTORLLD2 = 0
_V4_DETECTORWW2 = 0
_V4_DETECTORPS = 0
_V4_DETECTORDT = 0
_V4_DETECTORPILEUPTIME = 0
[...]
  60.8000        261
  61.2000        234
  61.6000        245
  62.0000        249
  62.4000        247
  62.8000        254
  63.2000        213
  63.6000        243
  64.0000        245
  64.4000        265
  64.8000        240
  65.2000        255
  65.6000        260
  66.0000        253
  66.4000        292
  66.8000        255
  67.2000        312
  67.6000        249
  68.0000        279
  68.4000        250
  68.8000        307
  69.2000        273
  69.6000        277
  70.0000        267
  70.4000        255
  70.8000        238
  71.2000        287
  71.6000        285
  72.0000        303
  72.4000        308
  72.8000        295
  73.2000        281
  73.6000        290
  74.0000        298
  74.4000        284
  74.8000        293
  75.2000        330
  75.6000        319
  76.0000        302
  76.4000        327
  76.8000        365
  77.2000        353
  77.6000        327
  78.0000        350
  78.4000        304
  78.8000        304
  79.2000        321
  79.6000        307
  80.0000        315
  80.4000        334
  80.8000        316
  81.2000        332
  81.6000        315
  82.0000        332
  82.4000        337
  82.8000        341
  83.2000        332
  83.6000        303
  84.0000        330
  84.4000        330
  84.8000        326
  85.2000        350
  85.6000        367
  86.0000        323
  86.4000        338
  86.8000        323
  87.2000        324
  87.6000        340
  88.0000        362
  88.4000        394
  88.8000        365
  89.2000        391
  89.6000        388
  90.0000        394
  90.4000        353
  90.8000        363
  91.2000        369
  91.6000        360
  92.0000        323
  92.4000        366
  92.8000        358
  93.2000        367
  93.6000        400
  94.0000        384
  94.4000        327
  94.8000        387
  95.2000        383
  95.6000        363
  96.0000        381
  96.4000        393
  96.8000        419
  97.2000        370
  97.6000        359
  98.0000        444
  98.4000        516
  98.8000        618
  99.2000        669
  99.6000        613
 100.0000        521
 100.4000        487
 100.8000        455
 101.2000        396
 101.6000        413
 102.0000        395
 102.4000        402
 102.8000        399
 103.2000        397
 103.6000        382
 104.0000        376
 104.4000        401
 104.8000        415
 105.2000        437
 105.6000        421
 106.0000        388
 106.4000        383
 106.8000        413
 107.2000        414
 107.6000        427
 108.0000        383
 108.4000        424
 108.8000        410
 109.2000        407
 109.6000        412
 110.0000        432
 110.4000        402
 110.8000        411
 111.2000        457
 111.6000        426
 112.0000        438
 112.4000        403
 112.8000        455
 113.2000        423
 113.6000        493
 114.0000        410
 114.4000        421
 114.8000        431
 115.2000        431
 115.6000        457
 116.0000        416
 116.4000        410
 116.8000        430
 117.2000        444
 117.6000        430
 118.0000        430
 118.4000        409
 118.8000        454
 119.2000        422
 119.6000        473
 120.0000        461
 120.4000        445
 120.8000        457
 121.2000        389
 121.6000        450
 122.0000        426
 122.4000        477
 122.8000        552
 123.2000        591
 123.6000        599
 124.0000        589
 124.4000        499
 124.8000        480
 125.2000        485
 125.6000        415
 126.0000        464
 126.4000        431
 126.8000        450
 127.2000        481
 127.6000        409
 128.0000        460
 128.4000        435
 128.8000        381
 129.2000        446
 129.6000        442
 130.0000        430