Folder: sw/exp_dat/old/exp_2013_11_11 (part 12)

File: 24pct_-40L.uxd
; (content of file C:\DIFFDAT1\GIFT\MDL\Seawoong Lee\20131104_MV8\equal_area_maxkhi080_n8_2th40_130_x25y00_-40L.raw)
_FILEVERSION = 3
_SAMPLE =
_+SAMPLE =
_SITE = Korea
_USER = Admin
_GONIOMETER_CODE = 20
; Goniometer : D8 theta/2theta, stage : Unknown
_SAMPLE_CHANGER_CODE = 0
_ATTACHMENTS_CODE = 0
_GONIOMETER_RADIUS = 300
_FIXED_DIVSLIT = 1
_FIXED_SAMPLESLIT = 0
_SOLLER_SLITS = 2
_FIXED_DETSLIT = 0.1
_MONOCHROMATOR = 0
; Incident beam monochromator : None
_SOLLER_SLITS_2 = 2
_THIN_FILM = N
_BETA_FILTER = Y
_FIXED_ANTISLIT = 0.6
_ANALYZER_CODE = 0
; Received beam analyzer : None
_DATEMEASURED = "07-Nov-2013 15:35:40"
_WL_UNIT = A
_WL1 = 1.78897
_WL2 = 1.79285
_WL3 = 1.62079
_WLRATIO = 0.5
_ANODE = Co
_V4_INF_CREATOR = XRDWizard
_V4_INF_CREATOR_VERSION = V2.9.0.22
_V4_INF_WIZARD_VERSION = V2.9.0.22
_V4_INF_WIZARD_ADDINS = V2.9.0.22
_V4_INF_WIZARD_DOCTYPE = XRD
_V4_INF_OSUSER = Postech
_V4_INF_USER = Admin
_V4_INF_SITE = Korea

; Data for range 1
_DRIVE = COUPLED
_STEPTIME = 0.2
_STEPSIZE = 0.1
_STEPMODE = C
_START = 40
_THETA = 20
_2THETA = 40
_KHI = 0
_PHI = 0
_X = 25
_Y = 0
_Z = 0
_DETECTOR = 1
; Detector type : Scintillation counter
_HV = 687
_GAIN = 80
_LLD = 0.69
_ULD = 1.866
_DETECTORSLIT = unkn
_AUX1 = 0
_AUX2 = 0
_AUX3 = 0
_TIMESTARTED = 28
_TEMP_RATE = -1
_TEMP_DELAY = -1
_KV = 35
_MA = 40
_RANGE_WL = 1.78897
_3DPLANE = 0
_V4_ADDITIONALDETECTOR = 0
_V4_D8_DIBNUM = 1
_V4_DETECTORNAME = "Detector 1"
_V4_TTLDETECTOR = None
_V4_DETECTORTYPE = 1
_V4_DETECTORFLAGS = 524545
_V4_DETECTORHV = 687
_V4_DETECTORGAIN = 80
_V4_DETECTORLLD1 = 0.69
_V4_DETECTORWW1 = 1.176
_V4_DETECTORLLD2 = 0
_V4_DETECTORWW2 = 0
_V4_DETECTORPS = 0
_V4_DETECTORDT = 0
_V4_DETECTORPILEUPTIME = 0
_V4_COUNTERS_MASK = 1
_V4_DRIVES_MASK = 0
_V4_ENCODERS_MASK = 0
_2THETACOUNTS = 1
; 2THETA  Cnt1_D1
  40.0000        515
  40.4000        556
  40.8000        540
  41.2000        557
  41.6000        560
  42.0000        550
  42.4000        527
  42.8000        549
  43.2000        535
  43.6000        579
  44.0000        532
  44.4000        546
  44.8000        528
  45.2000        537
  45.6000        548
  46.0000        528
  46.4000        551
  46.8000        551
  47.2000        515
  47.6000        564
  48.0000        601
  48.4000        537
  48.8000        515
  49.2000        531
  49.6000        550
  50.0000        486
  50.4000        527
  50.8000        556
  51.2000        604
  51.6000        892
  52.0000       1700
  52.4000       1707
  52.8000        684
  53.2000        545
  53.6000        515
  54.0000        500
  54.4000        520
  54.8000        577
  55.2000        519
  55.6000        517
  56.0000        503
  56.4000        562
  56.8000        497
  57.2000        549
  57.6000        504
  58.0000        532
  58.4000        504
  58.8000        544
  59.2000        554
  59.6000        543
  60.0000        568
  60.4000        531
  60.8000        572
  61.2000        552
  61.6000        541
  62.0000        530
  62.4000        534
  62.8000        536
  63.2000        512
  63.6000        547
  64.0000        531
  64.4000        485
  64.8000        531
  65.2000        498
  65.6000        545
  66.0000        477
  66.4000        508
  66.8000        530
  67.2000        505
  67.6000        513
  68.0000        545
  68.4000        599
  68.8000        495
  69.2000        589
  69.6000        491
  70.0000        556
  70.4000        536
  70.8000        512
  71.2000        496
  71.6000        553
  72.0000        508
  72.4000        556
  72.8000        541
  73.2000        517
  73.6000        537
  74.0000        547
  74.4000        530
  74.8000        565
  75.2000        549
  75.6000        530
  76.0000        539
  76.4000        782
  76.8000       1175
  77.2000       1094
  77.6000        679
  78.0000        536
  78.4000        534
  78.8000        511
  79.2000        542
  79.6000        541
  80.0000        545
  80.4000        546
  80.8000        505
  81.2000        510
  81.6000        531
  82.0000        544
  82.4000        575
  82.8000        512
  83.2000        477
  83.6000        533
  84.0000        526
  84.4000        492
  84.8000        489
  85.2000        524
  85.6000        490
  86.0000        537
  86.4000        463
  86.8000        478
  87.2000        528
  87.6000        557
  88.0000        566
  88.4000        507
  88.8000        561
  89.2000        530
  89.6000        550
  90.0000        572
  90.4000        537
  90.8000        548
  91.2000        501
  91.6000        502
  92.0000        519
  92.4000        505
  92.8000        521
  93.2000        491
  93.6000        540
  94.0000        512
  94.4000        518
  94.8000        542
  95.2000        530
  95.6000        539
  96.0000        505
  96.4000        508
  96.8000        519
  97.2000        510
  97.6000        482
  98.0000        559
  98.4000        620
  98.8000        942
  99.2000       1446
  99.6000       1353
 100.0000        750
 100.4000        574
 100.8000        549
 101.2000        541
 101.6000        562
 102.0000        535
 102.4000        570
 102.8000        532
 103.2000        501
 103.6000        527
 104.0000        482
 104.4000        534
 104.8000        488
 105.2000        535
 105.6000        508
 106.0000        510
 106.4000        475
 106.8000        466
 107.2000        466
 107.6000        525
 108.0000        571
 108.4000        530
 108.8000        496
 109.2000        501
 109.6000        483
 110.0000        551
 110.4000        522
 110.8000        564
 111.2000        520
 111.6000        522
 112.0000        478
 112.4000        561
 112.8000        523
 113.2000        505
 113.6000        534
 114.0000        507
 114.4000        483
 114.8000        535
 115.2000        512
 115.6000        514
 116.0000        509
 116.4000        532
 116.8000        504
 117.2000        506
 117.6000        512
 118.0000        512
 118.4000        536
 118.8000        516
 119.2000        508
 119.6000        502
 120.0000        510
 120.4000        507
 120.8000        502
 121.2000        521
 121.6000        505
 122.0000        501
 122.4000        535
 122.8000        575
 123.2000        595
 123.6000        635
 124.0000        589
 124.4000        514
 124.8000        515
 125.2000        483
 125.6000        524
 126.0000        518
 126.4000        527
 126.8000        491
 127.2000        567
 127.6000        516
 128.0000        558
 128.4000        510
 128.8000        506
 129.2000        502
 129.6000        516
 130.0000        533

; Data for range 2
_DRIVE = COUPLED
_STEPTIME = 0.2
_STEPSIZE = 0.1
_STEPMODE = C
_START = 40
_THETA = 20
_2THETA = 40
_KHI = 10.5
_PHI = 60
_X = 25
_Y = 0
_Z = 0
_DETECTOR = 1
; Detector type : Scintillation counter
_HV = 687
_GAIN = 80
_LLD = 0.69
_ULD = 1.866
_DETECTORSLIT = unkn
_AUX1 = 0
_AUX2 = 0
_AUX3 = 0
_TIMESTARTED = 225
_TEMP_RATE = -1
_TEMP_DELAY = -1
_KV = 35
_MA = 40
_RANGE_WL = 1.78897
_3DPLANE = 0
_V4_ADDITIONALDETECTOR = 0
_V4_D8_DIBNUM = 1
_V4_DETECTORNAME = "Detector 1"
_V4_TTLDETECTOR = None
_V4_DETECTORTYPE = 1
_V4_DETECTORFLAGS = 524545
_V4_DETECTORHV = 687
_V4_DETECTORGAIN = 80
_V4_DETECTORLLD1 = 0.69
_V4_DETECTORWW1 = 1.176
_V4_DETECTORLLD2 = 0
_V4_DETECTORWW2 = 0
_V4_DETECTORPS = 0
_V4_DETECTORDT = 0
_V4_DETECTORPILEUPTIME = 0
_V4_COUNTERS_MASK = 1
[...]
  60.8000        233
  61.2000        211
  61.6000        204
  62.0000        171
  62.4000        205
  62.8000        222
  63.2000        208
  63.6000        192
  64.0000        272
  64.4000        225
  64.8000        226
  65.2000        225
  65.6000        233
  66.0000        223
  66.4000        217
  66.8000        248
  67.2000        211
  67.6000        228
  68.0000        233
  68.4000        234
  68.8000        240
  69.2000        252
  69.6000        242
  70.0000        235
  70.4000        245
  70.8000        238
  71.2000        259
  71.6000        227
  72.0000        233
  72.4000        256
  72.8000        266
  73.2000        259
  73.6000        235
  74.0000        266
  74.4000        255
  74.8000        282
  75.2000        274
  75.6000        298
  76.0000        270
  76.4000        303
  76.8000        309
  77.2000        295
  77.6000        301
  78.0000        302
  78.4000        299
  78.8000        293
  79.2000        254
  79.6000        265
  80.0000        285
  80.4000        301
  80.8000        284
  81.2000        302
  81.6000        299
  82.0000        305
  82.4000        289
  82.8000        289
  83.2000        296
  83.6000        257
  84.0000        285
  84.4000        305
  84.8000        292
  85.2000        268
  85.6000        283
  86.0000        284
  86.4000        326
  86.8000        304
  87.2000        298
  87.6000        310
  88.0000        293
  88.4000        288
  88.8000        303
  89.2000        307
  89.6000        307
  90.0000        300
  90.4000        302
  90.8000        333
  91.2000        284
  91.6000        318
  92.0000        314
  92.4000        343
  92.8000        314
  93.2000        306
  93.6000        321
  94.0000        315
  94.4000        328
  94.8000        299
  95.2000        322
  95.6000        303
  96.0000        282
  96.4000        299
  96.8000        314
  97.2000        333
  97.6000        348
  98.0000        387
  98.4000        435
  98.8000        530
  99.2000        566
  99.6000        569
 100.0000        511
 100.4000        376
 100.8000        327
 101.2000        321
 101.6000        366
 102.0000        367
 102.4000        312
 102.8000        315
 103.2000        361
 103.6000        326
 104.0000        336
 104.4000        344
 104.8000        338
 105.2000        329
 105.6000        353
 106.0000        350
 106.4000        343
 106.8000        337
 107.2000        349
 107.6000        345
 108.0000        346
 108.4000        330
 108.8000        391
 109.2000        334
 109.6000        372
 110.0000        349
 110.4000        374
 110.8000        346
 111.2000        349
 111.6000        386
 112.0000        343
 112.4000        339
 112.8000        360
 113.2000        364
 113.6000        324
 114.0000        378
 114.4000        358
 114.8000        375
 115.2000        373
 115.6000        369
 116.0000        378
 116.4000        363
 116.8000        379
 117.2000        386
 117.6000        372
 118.0000        373
 118.4000        380
 118.8000        394
 119.2000        388
 119.6000        414
 120.0000        335
 120.4000        374
 120.8000        371
 121.2000        395
 121.6000        352
 122.0000        425
 122.4000        406
 122.8000        483
 123.2000        513
 123.6000        502
 124.0000        464
 124.4000        428
 124.8000        380
 125.2000        403
 125.6000        388
 126.0000        360
 126.4000        353
 126.8000        381
 127.2000        380
 127.6000        362
 128.0000        394
 128.4000        373
 128.8000        370
 129.2000        352
 129.6000        374
 130.0000        333

File: 25pct_-40G.uxd
; (content of file C:\DIFFDAT1\GIFT\MDL\Seawoong Lee\20131104_MV8\equal_area_maxkhi080_n8_2th40_130_x00y00_-40g.raw)
_FILEVERSION = 3
_SAMPLE =
_+SAMPLE =
_SITE = Korea
_USER = Admin
_GONIOMETER_CODE = 20
; Goniometer : D8 theta/2theta, stage : Unknown
_SAMPLE_CHANGER_CODE = 0
_ATTACHMENTS_CODE = 0
_GONIOMETER_RADIUS = 300
_FIXED_DIVSLIT = 1
_FIXED_SAMPLESLIT = 0
_SOLLER_SLITS = 2
_FIXED_DETSLIT = 0.1
_MONOCHROMATOR = 0
; Incident beam monochromator : None
_SOLLER_SLITS_2 = 2
_THIN_FILM = N
_BETA_FILTER = Y
_FIXED_ANTISLIT = 0.6
_ANALYZER_CODE = 0
; Received beam analyzer : None
_DATEMEASURED = "08-Nov-2013 00:19:36"
_WL_UNIT = A
_WL1 = 1.78897
_WL2 = 1.79285
_WL3 = 1.62079
_WLRATIO = 0.5
_ANODE = Co
_V4_INF_CREATOR = XRDWizard
_V4_INF_CREATOR_VERSION = V2.9.0.22
_V4_INF_WIZARD_VERSION = V2.9.0.22
_V4_INF_WIZARD_ADDINS = V2.9.0.22
_V4_INF_WIZARD_DOCTYPE = XRD
_V4_INF_OSUSER = Postech
_V4_INF_USER = Admin
_V4_INF_SITE = Korea

; Data for range 1
_DRIVE = COUPLED
_STEPTIME = 0.2
_STEPSIZE = 0.1
_STEPMODE = C
_START = 40
_THETA = 20
_2THETA = 40
_KHI = 0
_PHI = 0
_X = 0
_Y = 0
_Z = 0
_DETECTOR = 1
; Detector type : Scintillation counter
_HV = 687
_GAIN = 80
_LLD = 0.69
_ULD = 1.866
_DETECTORSLIT = unkn
_AUX1 = 0
_AUX2 = 0
_AUX3 = 0
_TIMESTARTED = 28
_TEMP_RATE = -1
_TEMP_DELAY = -1
_KV = 35
_MA = 40
_RANGE_WL = 1.78897
_3DPLANE = 0
_V4_ADDITIONALDETECTOR = 0
_V4_D8_DIBNUM = 1
_V4_DETECTORNAME = "Detector 1"
_V4_TTLDETECTOR = None
_V4_DETECTORTYPE = 1
_V4_DETECTORFLAGS = 524545
_V4_DETECTORHV = 687
_V4_DETECTORGAIN = 80
_V4_DETECTORLLD1 = 0.69
_V4_DETECTORWW1 = 1.176
_V4_DETECTORLLD2 = 0
_V4_DETECTORWW2 = 0
_V4_DETECTORPS = 0
_V4_DETECTORDT = 0
_V4_DETECTORPILEUPTIME = 0
_V4_COUNTERS_MASK = 1
_V4_DRIVES_MASK = 0
_V4_ENCODERS_MASK = 0
_2THETACOUNTS = 1
; 2THETA  Cnt1_D1
  40.0000        452
  40.4000        458
  40.8000        430
  41.2000        416
  41.6000        422
  42.0000        510
  42.4000        461
  42.8000        450
  43.2000        453
  43.6000        466
  44.0000        458
  44.4000        469
  44.8000        471
  45.2000        429
  45.6000        487
  46.0000        476
  46.4000        449
  46.8000        472
  47.2000        483
  47.6000        470
  48.0000        483
  48.4000        478
  48.8000        451
  49.2000        511
  49.6000        489
  50.0000        508
  50.4000        505
  50.8000        500
  51.2000        516
  51.6000        706
  52.0000       1174
  52.4000       1088
  52.8000        620
  53.2000        539
  53.6000        514
  54.0000        508
  54.4000        496
  54.8000        499
  55.2000        510
  55.6000        459
  56.0000        524
  56.4000        495
  56.8000        510
  57.2000        498
  57.6000        538
  58.0000        531
  58.4000        477
  58.8000        495
  59.2000        517
  59.6000        542
  60.0000        525
  60.4000        514
  60.8000        510
  61.2000        511
  61.6000        487
  62.0000        474
  62.4000        484
  62.8000        510
  63.2000        501
  63.6000        487
  64.0000        490
  64.4000        447
  64.8000        518
  65.2000        515
  65.6000        519
  66.0000        527
  66.4000        483
  66.8000        538
  67.2000        519
  67.6000        497
  68.0000        491
  68.4000        482
  68.8000        476
  69.2000        488
  69.6000        523
  70.0000        457
  70.4000        516
  70.8000        526
  71.2000        512
  71.6000        505
  72.0000        495
  72.4000        518
  72.8000        487
  73.2000        496
  73.6000        536
  74.0000        544
  74.4000        510
  74.8000        510
  75.2000        537
  75.6000        529
  76.0000        642
  76.4000       1020
  76.8000       1256
  77.2000        998
  77.6000        664
  78.0000        574
  78.4000        570
  78.8000        557
  79.2000        481
  79.6000        477
  80.0000        510
  80.4000        528
  80.8000        529
  81.2000        518
  81.6000        516
  82.0000        505
  82.4000        531
  82.8000        517
  83.2000        558
  83.6000        503
  84.0000        504
  84.4000        547
  84.8000        520
  85.2000        471
  85.6000        530
  86.0000        488
  86.4000        564
  86.8000        512
  87.2000        526
  87.6000        536
  88.0000        498
  88.4000        510
  88.8000        480
  89.2000        513
  89.6000        514
  90.0000        505
  90.4000        504
  90.8000        504
  91.2000        518
  91.6000        516
  92.0000        504
  92.4000        472
  92.8000        492
  93.2000        498
  93.6000        529
  94.0000        498
  94.4000        519
  94.8000        506
  95.2000        512
  95.6000        516
  96.0000        524
  96.4000        520
  96.8000        479
  97.2000        533
  97.6000        551
  98.0000        575
  98.4000        705
  98.8000       1183
  99.2000       1621
  99.6000       1330
 100.0000        801
 100.4000        611
 100.8000        580
 101.2000        531
 101.6000        521
 102.0000        517
 102.4000        496
 102.8000        520
 103.2000        532
 103.6000        514
 104.0000        509
 104.4000        502
 104.8000        513
 105.2000        515
 105.6000        539
 106.0000        537
 106.4000        513
 106.8000        488
 107.2000        541
 107.6000        533
 108.0000        574
 108.4000        524
 108.8000        508
 109.2000        508
 109.6000        478
 110.0000        533
 110.4000        513
 110.8000        541
 111.2000        511
 111.6000        534
 112.0000        469
 112.4000        481
 112.8000        548
 113.2000        512
 113.6000        545
 114.0000        488
 114.4000        544
 114.8000        509
 115.2000        536
 115.6000        547
 116.0000        481
 116.4000        541
 116.8000        516
 117.2000        499
 117.6000        519
 118.0000        496
 118.4000        517
 118.8000        492
 119.2000        513
 119.6000        507
 120.0000        528
 120.4000        529
 120.8000        509
 121.2000        542
 121.6000        555
 122.0000        515
 122.4000        541
 122.8000        588
 123.2000        582
 123.6000        511
 124.0000        530
 124.4000        534
 124.8000        549
 125.2000        514
 125.6000        495
 126.0000        521
 126.4000        514
 126.8000        481
 127.2000        537
 127.6000        549
 128.0000        492
 128.4000        490
 128.8000        521
 129.2000        487
 129.6000        511
 130.0000        487

; Data for range 2
_DRIVE = COUPLED
_STEPTIME = 0.2
_STEPSIZE = 0.1
_STEPMODE = C
_START = 40
_THETA = 20
_2THETA = 40
_KHI = 10.5
_PHI = 60
_X = 0
_Y = 0
_Z = 0
_DETECTOR = 1
; Detector type : Scintillation counter
_HV = 687
_GAIN = 80
_LLD = 0.69
_ULD = 1.866
_DETECTORSLIT = unkn
_AUX1 = 0
_AUX2 = 0
_AUX3 = 0
_TIMESTARTED = 225
_TEMP_RATE = -1
_TEMP_DELAY = -1
_KV = 35
_MA = 40
_RANGE_WL = 1.78897
_3DPLANE = 0
_V4_ADDITIONALDETECTOR = 0
_V4_D8_DIBNUM = 1
_V4_DETECTORNAME = "Detector 1"
_V4_TTLDETECTOR = None
_V4_DETECTORTYPE = 1
_V4_DETECTORFLAGS = 524545
_V4_DETECTORHV = 687
_V4_DETECTORGAIN = 80
_V4_DETECTORLLD1 = 0.69
_V4_DETECTORWW1 = 1.176
_V4_DETECTORLLD2 = 0
_V4_DETECTORWW2 = 0
_V4_DETECTORPS = 0
_V4_DETECTORDT = 0
_V4_DETECTORPILEUPTIME = 0
_V4_COUNTERS_MASK = 1
[...]
  60.8000        228
  61.2000        219
  61.6000        192
  62.0000        192
  62.4000        197
  62.8000        214
  63.2000        201
  63.6000        203
  64.0000        184
  64.4000        183
  64.8000        181
  65.2000        182
  65.6000        211
  66.0000        207
  66.4000        209
  66.8000        197
  67.2000        209
  67.6000        205
  68.0000        197
  68.4000        198
  68.8000        220
  69.2000        206
  69.6000        203
  70.0000        199
  70.4000        222
  70.8000        201
  71.2000        217
  71.6000        232
  72.0000        212
  72.4000        227
  72.8000        212
  73.2000        223
  73.6000        221
  74.0000        209
  74.4000        231
  74.8000        247
  75.2000        246
  75.6000        254
  76.0000        260
  76.4000        267
  76.8000        258
  77.2000        297
  77.6000        256
  78.0000        244
  78.4000        242
  78.8000        228
  79.2000        269
  79.6000        223
  80.0000        226
  80.4000        205
  80.8000        257
  81.2000        236
  81.6000        243
  82.0000        250
  82.4000        244
  82.8000        226
  83.2000        236
  83.6000        242
  84.0000        215
  84.4000        238
  84.8000        239
  85.2000        274
  85.6000        255
  86.0000        240
  86.4000        271
  86.8000        247
  87.2000        268
  87.6000        268
  88.0000        256
  88.4000        266
  88.8000        244
  89.2000        262
  89.6000        257
  90.0000        251
  90.4000        257
  90.8000        273
  91.2000        245
  91.6000        280
  92.0000        297
  92.4000        271
  92.8000        276
  93.2000        248
  93.6000        252
  94.0000        288
  94.4000        263
  94.8000        276
  95.2000        267
  95.6000        268
  96.0000        295
  96.4000        312
  96.8000        284
  97.2000        306
  97.6000        290
  98.0000        345
  98.4000        406
  98.8000        455
  99.2000        510
  99.6000        544
 100.0000        450
 100.4000        361
 100.8000        324
 101.2000        293
 101.6000        290
 102.0000        288
 102.4000        277
 102.8000        310
 103.2000        315
 103.6000        279
 104.0000        276
 104.4000        312
 104.8000        333
 105.2000        331
 105.6000        318
 106.0000        305
 106.4000        315
 106.8000        325
 107.2000        340
 107.6000        305
 108.0000        338
 108.4000        315
 108.8000        310
 109.2000        314
 109.6000        360
 110.0000        313
 110.4000        330
 110.8000        322
 111.2000        312
 111.6000        328
 112.0000        322
 112.4000        379
 112.8000        341
 113.2000        318
 113.6000        356
 114.0000        342
 114.4000        316
 114.8000        392
 115.2000        362
 115.6000        327
 116.0000        337
 116.4000        313
 116.8000        374
 117.2000        400
 117.6000        365
 118.0000        348
 118.4000        376
 118.8000        360
 119.2000        378
 119.6000        371
 120.0000        371
 120.4000        376
 120.8000        378
 121.2000        360
 121.6000        387
 122.0000        419
 122.4000        410
 122.8000        462
 123.2000        494
 123.6000        468
 124.0000        483
 124.4000        437
 124.8000        401
 125.2000        355
 125.6000        452
 126.0000        390
 126.4000        395
 126.8000        402
 127.2000        385
 127.6000        329
 128.0000        369
 128.4000        371
 128.8000        383
 129.2000        405
 129.6000        418
 130.0000        370